"Time (s)","Linear Acceleration x (m/s^2)","Linear Acceleration y (m/s^2)","Linear Acceleration z (m/s^2)","Absolute acceleration (m/s^2)"
5.147067800E-2,0.000000000E0,0.000000000E0,0.000000000E0,0.000000000E0
5.620036500E-2,-1.188859344E-3,-8.413876407E-3,1.556205750E-2,1.773088650E-2
6.093010500E-2,1.037177444E-2,2.307333797E-2,1.356697083E-2,2.870566717E-2
6.565979200E-2,2.395135164E-2,1.907013729E-2,5.686092377E-2,6.457942423E-2
7.038953200E-2,1.924309134E-2,1.905414648E-2,1.675605774E-2,3.184529060E-2
7.511927200E-2,7.997691631E-3,5.891777575E-3,1.396465302E-2,1.713731742E-2
7.984895900E-2,-1.388221979E-3,3.036295995E-3,-1.881027222E-2,1.910425593E-2
8.457869900E-2,-1.374423504E-2,-1.822606474E-2,-5.416774750E-2,5.878127509E-2
8.930838600E-2,-2.925264835E-2,8.386131376E-4,-2.686786652E-2,3.972786124E-2
9.403812600E-2,-2.611041069E-3,7.446743548E-4,-1.556110382E-2,1.579620295E-2
9.876786500E-2,1.064801216E-2,2.789063379E-3,3.155994415E-2,3.342437901E-2
1.034975530E-1,3.172168136E-2,3.543825448E-2,7.062625885E-2,8.514812615E-2
1.082272920E-1,4.039955139E-2,2.388649620E-2,2.983379364E-2,5.561244192E-2
1.129569800E-1,-2.433121204E-3,-1.115125045E-2,1.658439636E-2,2.013237860E-2
1.176867190E-1,-1.563578844E-2,-1.426734030E-3,-2.697658539E-2,3.121297181E-2
1.224164590E-1,-1.247903705E-2,-1.481850632E-2,-3.202247620E-2,3.742664127E-2
1.271461470E-1,-4.899203777E-4,-4.406664521E-4,-4.140567780E-2,4.141092081E-2
1.318758860E-1,-1.859007776E-2,-9.498942643E-3,1.516151428E-2,2.580101583E-2
1.366055740E-1,1.186195016E-2,9.053630754E-3,5.745887756E-2,5.936494506E-2
1.413353130E-1,2.950689197E-2,2.451033704E-2,5.458545685E-2,6.671570576E-2
1.460650530E-1,7.678657770E-3,2.810930833E-3,4.286384583E-2,4.363682386E-2
1.507947400E-1,5.169808865E-4,2.753194422E-3,6.633758545E-3,7.200979183E-3
1.555244800E-1,5.926489830E-4,-2.022311650E-2,-2.342700958E-2,3.095400543E-2
1.602541670E-1,-1.779830456E-2,-1.707160100E-2,-1.556777954E-2,2.916461839E-2
1.649839070E-1,-5.689024925E-3,-4.936853424E-3,1.146316528E-3,7.619157953E-3
1.697135940E-1,3.726094961E-3,-9.390117601E-3,4.714298248E-2,4.821326466E-2
1.744433340E-1,8.242487907E-3,1.855598576E-2,6.153297424E-2,6.479637439E-2
1.791730740E-1,3.341400623E-2,8.618908003E-3,4.086589813E-2,5.348647509E-2
1.839027610E-1,-4.679262638E-3,-7.842937484E-3,4.781723022E-3,1.030883322E-2
1.886325010E-1,-1.382005215E-2,4.033919424E-3,-3.703403473E-2,3.973394110E-2
1.933622400E-1,-6.435483694E-3,-5.347482860E-3,-2.425384521E-2,2.565657871E-2
1.980919280E-1,4.614591599E-4,-1.897086017E-2,-2.117061615E-2,2.843064312E-2
2.028216670E-1,4.634559155E-4,-9.149236605E-3,-4.278182983E-3,1.011069589E-2
2.075513550E-1,4.100203514E-4,5.023231730E-3,5.858707428E-2,5.880345437E-2
2.122810940E-1,2.832281590E-2,2.347213216E-2,4.528522491E-2,5.834273291E-2
2.170108340E-1,2.278530598E-2,1.352526248E-2,1.144218445E-2,2.886219809E-2
2.217405220E-1,-1.048186421E-2,1.084661111E-2,-1.448917389E-2,2.091541561E-2
2.264702610E-1,-1.487991214E-2,-2.439125068E-2,-5.140495300E-2,5.881168326E-2
2.311999490E-1,-3.550463915E-2,-1.441943832E-2,-6.175041199E-2,7.267470663E-2
2.359296880E-1,-2.531987429E-2,6.936829537E-3,-2.752590179E-2,3.803801924E-2
2.406594280E-1,-2.471414208E-2,6.727188826E-3,3.854465485E-2,4.627887537E-2
2.453891150E-1,6.300717592E-3,2.054911852E-2,2.360439301E-2,3.192385759E-2
2.501188550E-1,1.315748692E-2,2.707555704E-2,4.176235199E-2,5.148105763E-2
2.548485420E-1,1.056301594E-2,-1.329888031E-2,3.376960754E-3,1.731592871E-2
2.595782820E-1,-1.075157523E-2,1.515841484E-2,-5.053901672E-2,5.384761946E-2
2.643080220E-1,-1.986987889E-2,-2.728437074E-2,-3.773117065E-2,5.062499592E-2
2.690377090E-1,4.000723362E-3,-1.265736856E-2,-3.692817688E-2,3.924162349E-2
2.737674490E-1,6.249606609E-3,-3.056621179E-3,8.380889893E-3,1.089219129E-2
2.784971360E-1,1.363456249E-3,1.338182203E-2,4.104614258E-2,4.319395785E-2
2.832268760E-1,2.012225986E-2,1.544714533E-2,3.083896637E-2,3.993196072E-2
2.879566150E-1,1.742494106E-2,1.281275228E-2,2.084541321E-2,3.003874904E-2
2.926863030E-1,1.710599661E-2,8.706413209E-4,-2.416896820E-2,2.962283174E-2
2.974160420E-1,-4.340767860E-3,-2.262016386E-2,-3.545951843E-2,4.228346634E-2
3.021457300E-1,-1.839897037E-2,-1.278732158E-2,-4.654979706E-2,5.166160383E-2
3.068754690E-1,-3.973037004E-3,1.508651301E-3,-4.570388794E-2,4.590105036E-2
3.116051570E-1,1.495298743E-2,8.496565744E-3,3.270435333E-2,3.695075357E-2
3.163348970E-1,2.887591720E-2,-1.101618633E-3,5.094623566E-2,5.857090647E-2
3.210646360E-1,4.922538996E-3,1.299355179E-2,5.712413788E-2,5.878971769E-2
3.257943240E-1,9.590685368E-3,-8.449131623E-3,3.261947632E-2,3.503425904E-2
3.305240630E-1,7.092952728E-3,1.152409241E-3,-2.207183838E-2,2.321215360E-2
3.352537510E-1,-2.482920885E-3,-2.001620270E-2,-3.819370270E-2,4.319227006E-2
3.399834900E-1,-2.127040923E-2,-1.979142614E-2,-3.522300720E-2,4.565951263E-2
3.447131780E-1,-2.330081165E-2,3.986377269E-3,3.035545349E-3,2.383345470E-2
3.494429170E-1,-4.067003727E-3,2.268104814E-2,4.305171967E-2,4.883053379E-2
3.541726570E-1,1.254102588E-2,1.990574226E-2,5.181694031E-2,5.690791867E-2
3.589023440E-1,2.185529470E-2,-8.703084663E-3,3.452491760E-2,4.177759597E-2
3.636320840E-1,9.753465652E-3,5.593501031E-3,8.067131042E-3,1.383820614E-2
3.683618240E-1,-1.160374284E-2,-1.570228487E-2,-2.979469299E-2,3.562207642E-2
3.730915110E-1,-1.846903563E-2,-2.728506364E-2,-4.823875427E-2,5.841709843E-2
3.778212510E-1,7.769942284E-3,-1.982738823E-2,-2.159118652E-2,3.032617125E-2
3.825509380E-1,-4.181772470E-3,1.109668240E-2,3.536224365E-2,3.729761195E-2
3.872806780E-1,1.239019632E-2,1.562413573E-2,4.431533813E-2,4.859505918E-2
3.920103650E-1,5.124449730E-3,2.014922537E-2,4.843139648E-2,5.270532642E-2
3.967401050E-1,9.794980288E-3,-6.000762805E-3,3.596591949E-2,3.775576987E-2
4.014698440E-1,-1.860880852E-2,8.353842422E-3,-3.065586090E-2,3.682195331E-2
4.061995320E-1,-2.079515159E-2,-3.899304569E-2,-3.261280060E-2,5.492258829E-2
4.109292720E-1,-3.471520543E-2,-2.671177499E-2,-3.833770752E-3,4.397001489E-2
4.156589590E-1,-1.194596291E-3,-5.109723657E-3,3.305435181E-3,6.201793119E-3
4.203886990E-1,-5.890697241E-3,3.509850055E-2,5.999374390E-2,6.975567620E-2
4.251183860E-1,8.384406567E-3,1.576351002E-3,6.869983673E-2,6.922752865E-2
4.298481260E-1,1.069006324E-2,6.302511320E-3,3.947734833E-2,4.138188169E-2
4.345778650E-1,-3.556609154E-3,1.812267676E-2,-3.574371338E-3,1.881108748E-2
4.393075530E-1,1.261502504E-3,1.391705126E-3,-2.955055237E-2,2.961019042E-2
4.440372920E-1,-1.187771559E-3,-1.280344278E-2,-3.156185150E-2,3.408063113E-2
4.487669800E-1,-3.665208817E-3,1.529408619E-3,-2.645492554E-2,2.675137252E-2
4.534967190E-1,-6.057620049E-3,2.271020226E-2,3.537654877E-2,4.247291196E-2
4.582264590E-1,1.293271780E-2,2.477397583E-2,7.046985626E-2,7.580900811E-2
4.629561470E-1,1.990270615E-2,1.974682510E-2,3.889942169E-2,4.795018062E-2
4.676858860E-1,-6.343781948E-3,1.956991106E-2,1.478958130E-2,2.533686451E-2
4.724155740E-1,-2.996037900E-2,2.796541899E-3,-2.088737488E-2,3.662959713E-2
4.771453130E-1,-2.490767837E-2,-2.010025084E-3,-5.143928528E-2,5.718769721E-2
4.818750010E-1,-1.760163903E-2,-1.384040527E-2,-5.324649811E-2,5.776299919E-2
4.866047400E-1,-2.935151756E-2,5.067028105E-4,8.905410767E-3,3.067694039E-2
4.913344800E-1,1.349872351E-2,-4.304630682E-3,4.197502136E-2,4.430178100E-2
4.960641670E-1,6.323069334E-3,2.409876138E-2,2.494907379E-2,3.525886823E-2
5.007939070E-1,-7.484853268E-4,3.328255191E-2,5.548572540E-2,6.470667829E-2
5.055235940E-1,-1.254311204E-2,-2.585250884E-3,-3.038597107E-2,3.297454199E-2
5.102533340E-1,-3.135615587E-2,-3.334799781E-2,-6.799125671E-2,8.196406810E-2
5.149830220E-1,-3.342124820E-2,-3.068382852E-2,-3.175544739E-2,5.537946914E-2
5.197127610E-1,4.937112331E-3,-1.371244155E-2,-4.566192627E-2,4.793138473E-2
5.244425010E-1,-1.168811321E-2,1.011464186E-2,2.116203308E-2,2.620590801E-2
5.291721880E-1,1.931801438E-2,7.574582472E-3,4.465866089E-2,4.924384197E-2
5.339019280E-1,1.914685965E-2,9.887708351E-3,3.711128235E-2,4.291405700E-2
5.386316150E-1,1.895070076E-2,7.494267076E-3,8.299827576E-3,2.200409589E-2
5.433613550E-1,-7.297515869E-3,-9.133461863E-3,-6.529045105E-2,6.632885392E-2
5.480910420E-1,-1.912672818E-2,-1.860039309E-3,-5.044364929E-2,5.398011885E-2
5.528207820E-1,-1.898835599E-2,5.259115249E-3,-4.522895813E-2,4.933431473E-2
5.575505220E-1,-6.965100765E-3,7.571250200E-3,-2.114295959E-3,1.050269992E-2
5.622802090E-1,1.683637500E-2,1.460709237E-2,3.111457825E-2,3.827463455E-2
5.670099490E-1,3.093355894E-2,2.160866000E-2,4.269218445E-2,5.697755583E-2
5.717396360E-1,6.974369287E-3,1.668551378E-2,4.230690002E-2,4.601002050E-2
5.764693760E-1,2.353763580E-2,1.417964324E-2,-2.213573456E-2,3.528559658E-2
5.811991150E-1,-1.224794984E-2,-7.229287177E-3,-6.465339661E-2,6.619921873E-2
5.859288030E-1,-2.644807100E-2,-7.150046527E-3,-3.798103333E-2,4.683142660E-2
5.906585420E-1,-2.397063375E-2,-1.893921942E-2,-3.527259827E-2,4.666306358E-2
5.953882300E-1,1.648736000E-2,4.974478856E-3,4.335784912E-2,4.665277655E-2
6.001179690E-1,2.111005783E-2,2.865644917E-2,4.298686981E-2,5.580947587E-2
6.048476570E-1,2.812600136E-2,-2.781115472E-5,2.265930176E-3,2.821714311E-2
6.095773970E-1,-1.711419225E-2,1.185892522E-2,1.173973083E-2,2.390294885E-2
6.143071360E-1,-1.932932436E-2,-3.333287686E-2,-2.397060394E-2,4.537943712E-2
6.190368240E-1,-2.395695448E-2,-2.357192710E-2,-7.362651825E-2,8.093476141E-2
6.237665630E-1,-4.276247323E-2,-2.810872719E-2,-5.639362335E-2,7.615097120E-2
6.284962510E-1,-1.155409217E-2,-2.791714296E-2,-1.081562042E-2,3.209114460E-2
6.332259900E-1,-4.290610552E-3,-1.665413380E-3,4.387855530E-2,4.411927646E-2
6.379556780E-1,1.715728641E-2,3.056403250E-3,3.401470184E-2,3.821928857E-2
6.426854170E-1,9.936630726E-3,5.422450602E-3,2.898216248E-2,3.111439124E-2
6.474151570E-1,-4.431575537E-3,-1.116897911E-2,-1.636695862E-2,2.030424316E-2
6.521448440E-1,-3.521366417E-2,-8.628964424E-3,-4.946899414E-2,6.133223095E-2
6.568745840E-1,-2.778126299E-2,-8.513510227E-3,-5.143260956E-2,5.907276662E-2
6.616042720E-1,5.590945482E-3,-3.454311937E-2,-3.200721741E-2,4.742307174E-2
6.663340110E-1,2.215144038E-2,-1.087551937E-3,4.898071289E-2,5.376782789E-2
6.710636990E-1,1.963773370E-2,2.499525063E-2,3.195190430E-2,4.507024880E-2
6.757934380E-1,1.479917765E-2,2.477431297E-2,6.492233276E-2,7.104710785E-2
6.805231260E-1,-4.243940115E-3,7.936179638E-3,2.639198303E-2,2.788423826E-2
6.852528650E-1,-2.075408399E-2,1.500679180E-2,-4.030609131E-2,4.775475682E-2
6.899826050E-1,-8.665382862E-3,-1.124730520E-2,-3.284835815E-2,3.578554691E-2
6.947122920E-1,-1.511275768E-3,7.045175880E-4,-2.545166016E-2,2.550622089E-2
6.994420320E-1,-3.856480122E-3,5.378110334E-3,-3.872871399E-3,7.667831673E-3
7.041717190E-1,1.750254631E-2,1.238537207E-2,5.788803101E-2,6.173135915E-2
7.089014590E-1,1.980432868E-2,1.226874813E-2,5.502986908E-2,5.975801290E-2
7.136311470E-1,2.214387059E-2,3.114628047E-2,2.370357513E-2,4.497000407E-2
7.183608860E-1,6.655156612E-4,1.190861315E-2,-7.359504700E-3,1.401500223E-2
7.230906260E-1,-1.348313689E-2,-7.224168628E-3,-3.579044342E-2,3.892222287E-2
7.278203130E-1,9.189546108E-4,-9.606955573E-3,-5.923461914E-2,6.001564944E-2
7.325500530E-1,-3.848969936E-3,2.273475751E-3,-1.838016510E-2,1.891596497E-2
7.372797400E-1,1.035907865E-2,1.640057191E-2,4.825115204E-2,5.200445118E-2
7.420094800E-1,2.687972784E-2,1.384863257E-2,5.497169495E-2,6.273907585E-2
7.467391670E-1,1.723259687E-2,1.128870621E-2,4.501533508E-2,4.950532977E-2
7.514689070E-1,2.185362577E-2,6.462939084E-3,9.025573730E-3,2.451145696E-2
7.561986470E-1,9.788662195E-3,-1.731579565E-2,-3.615665436E-2,4.126691581E-2
7.609283340E-1,-9.269744158E-3,-2.193167247E-2,-5.959701538E-2,6.417733756E-2
7.656580740E-1,-2.101840079E-2,-3.606263548E-2,-2.823829651E-2,5.039531962E-2
7.703877610E-1,7.577568293E-3,4.528032616E-3,-1.375675201E-2,1.634536162E-2
7.751175010E-1,1.225078106E-2,-7.479289547E-3,3.621578217E-2,3.895644089E-2
7.798471880E-1,7.473856211E-3,2.343354747E-2,3.828811646E-2,4.550790629E-2
7.845769280E-1,2.708107233E-3,1.141261123E-2,3.321838379E-2,3.522843399E-2
7.893066150E-1,2.673655748E-3,-2.897174656E-2,-4.065704346E-2,4.999505692E-2
7.940363550E-1,-9.231299162E-3,-1.198229194E-2,-5.456256866E-2,5.662036827E-2
7.987660940E-1,-6.763815880E-3,-1.429771259E-2,-4.935932159E-2,5.183161602E-2
8.034957820E-1,-9.150505066E-3,-1.422045566E-2,-3.470039368E-2,3.860143033E-2
8.082255220E-1,9.935438633E-3,1.194331050E-2,1.544570923E-2,2.190720293E-2
8.129552090E-1,2.651667595E-2,4.650972784E-3,3.193473816E-2,4.176832715E-2
8.176849490E-1,-4.523217678E-3,2.596613020E-2,5.303478241E-2,5.922320120E-2
8.224146360E-1,7.430106401E-3,-1.216382533E-2,-2.013206482E-3,1.439507305E-2
8.271443760E-1,-4.457414150E-3,-1.201968268E-2,-3.523540497E-2,3.749500068E-2
8.318740630E-1,-3.057640791E-2,-2.846576460E-2,-3.256702423E-2,5.297006270E-2
8.366038030E-1,-3.971633315E-2,-2.352137677E-2,-5.129241943E-2,6.900401855E-2
8.413335420E-1,-1.305404305E-2,-1.149497926E-2,-3.387451172E-3,1.772053650E-2
8.460632300E-1,3.661721945E-3,-9.094635025E-3,2.038288116E-2,2.261818822E-2
8.507929690E-1,2.979162335E-2,1.468304545E-2,6.057167053E-2,6.908009783E-2
8.555226570E-1,9.561777115E-4,2.172667719E-2,5.769634247E-2,6.165898728E-2
8.602523970E-1,5.713015795E-3,-6.957564503E-3,-6.885528564E-3,1.133387652E-2
8.649820840E-1,-8.534461260E-3,-1.638110541E-2,-3.057098389E-2,3.571782047E-2
8.697118240E-1,-6.101280451E-3,-2.332272753E-2,-3.743934631E-2,4.452953958E-2
8.744415630E-1,-3.688246012E-3,-4.177074879E-3,-2.288150787E-2,2.355025511E-2
8.791712510E-1,3.481417894E-3,-1.614032313E-2,3.903770447E-2,4.238599617E-2
8.839009900E-1,2.480772138E-2,7.694536820E-3,6.482791901E-2,6.983758314E-2
8.886306780E-1,4.355370998E-2,1.001963019E-2,4.292106628E-2,6.196399417E-2
8.933604170E-1,9.969055653E-3,1.710365899E-2,2.119541168E-2,2.900280500E-2
8.980901050E-1,1.470759511E-2,1.222943887E-2,-1.222133636E-2,2.269875749E-2
9.028198440E-1,-1.629102230E-2,-1.159735024E-2,-2.636432648E-2,3.309038608E-2
9.075495320E-1,-2.094398439E-2,-6.765821949E-3,-5.463409424E-2,5.890085808E-2
9.122792720E-1,-1.603311300E-2,7.493557408E-3,-1.856613159E-2,2.564986077E-2
9.170089590E-1,3.081589937E-3,1.213828474E-2,8.605194092E-2,8.695844231E-2
9.217386990E-1,1.971989870E-2,1.911845058E-2,5.446910858E-2,6.100224051E-2
9.264683860E-1,7.758378983E-3,9.505320340E-3,3.739452362E-2,3.935599009E-2
9.311981260E-1,1.960924268E-2,2.406485379E-3,1.571369171E-2,2.524348782E-2
9.359278650E-1,2.814710140E-3,-1.424524933E-2,-3.664779663E-2,3.941967427E-2
9.406575530E-1,-2.333658934E-2,-4.641059786E-3,-4.109191895E-2,4.748348808E-2
9.453872920E-1,-1.134046912E-2,-2.598159574E-2,-3.837394714E-2,4.770963610E-2
9.501169800E-1,-4.135668278E-3,7.489591837E-3,1.892566681E-2,2.076965580E-2
9.548467190E-1,2.683621645E-2,1.688187383E-2,5.200386047E-2,6.090633532E-2
9.595764070E-1,2.668598294E-2,3.100191802E-2,5.156898499E-2,6.582264670E-2
9.643061470E-1,2.795696259E-3,1.413883455E-2,2.264785767E-2,2.684488810E-2
9.690358860E-1,9.968101978E-3,4.598759115E-3,-4.164505005E-2,4.306764256E-2
9.737655740E-1,-2.333679795E-2,-2.153782174E-2,-4.604721069E-2,5.593594119E-2
9.784953130E-1,-2.547156811E-2,-4.837395623E-3,-5.990791321E-2,6.527755543E-2
9.832250010E-1,-1.529812813E-3,-2.386063710E-2,-3.091907501E-2,3.908528533E-2
9.879547400E-1,-1.557409763E-3,4.813799635E-3,2.394485474E-2,2.447354205E-2
9.926844280E-1,1.983934641E-2,2.135159448E-2,4.273796082E-2,5.173029622E-2
9.974141670E-1,1.256799698E-2,6.944611669E-3,3.288364410E-2,3.588197638E-2
1.002143855E0,-1.120480895E-2,-7.313830778E-3,-1.487541199E-2,2.000794207E-2
1.006873594E0,-1.813201606E-2,-1.670515537E-2,-3.849601746E-2,4.571406329E-2
1.011603282E0,-2.740411460E-2,-1.657859050E-2,-5.242156982E-2,6.143171936E-2
1.016333022E0,-1.072376966E-3,-2.122832648E-2,-4.011440277E-2,4.539776589E-2
1.021062761E0,-8.141011000E-3,-9.249521419E-3,1.007556915E-2,1.591687156E-2
1.025792449E0,1.099339128E-2,7.405474782E-3,2.186107635E-2,2.556564820E-2
1.030522188E0,2.524864674E-2,1.442431845E-2,9.804725647E-3,3.068693158E-2
1.035251876E0,8.464157581E-3,7.168263197E-3,1.921939850E-2,2.219034113E-2
1.039981615E0,1.287549734E-3,1.190190390E-2,-2.130222321E-2,2.443558500E-2
1.044711303E0,-2.010266483E-2,-9.548010305E-3,-3.774356842E-2,4.381619097E-2
1.049441042E0,-1.760144532E-2,-2.387885004E-3,-7.066535950E-2,7.286361167E-2
1.054170730E0,-8.479654789E-4,-7.127396762E-3,-3.446292877E-2,3.520244721E-2
1.058900469E0,6.269305944E-3,1.663388312E-2,3.467273712E-2,3.896394441E-2
1.063630157E0,3.234913945E-2,2.357659675E-2,3.913307190E-2,5.597963964E-2
1.068359897E0,1.317441463E-3,4.375064746E-3,2.693271637E-2,2.731754115E-2
1.073089636E0,-5.685538054E-3,1.382179186E-2,-2.315235138E-2,2.755718867E-2
1.077819324E0,-1.274409890E-2,-1.233698986E-2,-3.720569611E-2,4.121743804E-2
1.082549063E0,-2.449229360E-2,-2.649094909E-2,-4.401779175E-2,5.691404765E-2
1.087278751E0,-2.667437494E-2,9.329382330E-3,-3.890228271E-2,4.808271263E-2
1.092008490E0,6.802409887E-3,1.867864281E-2,-7.713317871E-3,2.132275193E-2
1.096738178E0,6.762146950E-3,2.085602097E-2,3.745841980E-2,4.340315030E-2
1.101467917E0,2.571526170E-2,1.589432918E-2,3.239917755E-2,4.431265158E-2
1.106197605E0,1.775711775E-3,2.290168777E-2,3.450202942E-2,4.144913134E-2
1.110927344E0,-2.942442894E-3,-3.360474482E-3,-2.751445770E-2,2.787465052E-2
1.115657032E0,-1.946358383E-2,-1.041060500E-2,-2.253818512E-2,3.154649870E-2
1.120386772E0,-1.928503811E-2,-2.455213852E-2,-1.997756958E-2,3.706512495E-2
1.125116459E0,1.175603271E-2,-1.014376618E-2,-1.981067657E-2,2.517068143E-2
1.129846199E0,-1.203858852E-2,8.893592283E-3,5.157852173E-2,5.370630783E-2
1.134575886E0,1.894208789E-2,4.058547318E-3,6.302070618E-2,6.593090252E-2
1.139305626E0,3.069993854E-2,3.012771346E-2,7.911300659E-2,9.005017022E-2
1.144035365E0,6.747424603E-3,1.090006530E-2,2.384757996E-2,2.707482654E-2
1.148765053E0,-5.362480879E-3,-1.755078509E-2,-1.670742035E-2,2.481781927E-2
1.153494792E0,-1.268014312E-2,-1.962044090E-2,-1.418876648E-2,2.733255979E-2
1.158224480E0,-7.952213287E-3,-1.231789216E-2,-1.406669617E-2,2.031846708E-2
1.162954219E0,1.824599504E-2,-1.231256314E-2,2.878475189E-2,3.623641108E-2
1.167683907E0,6.154119968E-3,1.994566992E-3,6.653404236E-2,6.684781434E-2
1.172413647E0,1.318484545E-2,6.712835282E-3,6.598091125E-2,6.761939779E-2
1.177143334E0,1.077443361E-2,4.268571734E-3,4.168796539E-2,4.326887545E-2
1.181873074E0,-5.946546793E-3,-7.592651993E-3,1.285171509E-2,1.606786743E-2
1.186602761E0,-1.546257734E-2,2.011533827E-3,-1.499176025E-3,1.566477243E-2
1.191332501E0,-2.012254298E-2,-2.647916414E-2,-3.947257996E-2,5.161537986E-2
1.196062240E0,-3.376245499E-3,-3.576850891E-2,-1.302623749E-2,3.821607157E-2
1.200791928E0,-2.003614604E-2,1.194291189E-2,5.830764771E-2,6.280017575E-2
1.205521667E0,1.338532567E-2,7.053961977E-3,3.645610809E-2,3.947116847E-2
1.210251355E0,2.753511071E-2,1.888175867E-2,3.615093231E-2,4.920968441E-2
1.214981094E0,5.897760391E-3,2.114288509E-2,1.448249817E-2,2.629729873E-2
1.219710782E0,5.865126848E-3,-3.570765257E-4,-3.074836731E-2,3.130478093E-2
1.224440522E0,-1.075795293E-2,-1.927370578E-2,-2.574539185E-2,3.391215840E-2
1.229170209E0,-3.586381674E-3,-2.144291438E-2,-3.739929199E-2,4.325930827E-2
1.233899949E0,-3.653913736E-3,-9.378410876E-3,-1.473426819E-3,1.017234795E-2
1.238629636E0,2.013444901E-2,7.277650759E-3,2.702808380E-2,3.448010370E-2
1.243359376E0,1.048651338E-2,4.830207676E-3,3.392505646E-2,3.583583855E-2
1.248089063E0,-3.829240799E-3,7.207661867E-3,5.152702332E-3,9.652140488E-3
1.252818803E0,-8.500695229E-3,9.566066787E-3,-4.000091553E-2,4.199815110E-2
1.257548542E0,-2.740652859E-2,-2.136249840E-2,-7.053184509E-2,7.862706480E-2
1.262278230E0,-3.431273997E-2,-1.164279878E-2,-6.994438171E-2,7.877268195E-2
1.267007969E0,-3.203392029E-3,-9.155791253E-3,-5.511474609E-2,5.596182155E-2
1.271737657E0,1.588016748E-3,9.872565046E-3,1.419544220E-2,1.736375296E-2
1.276467397E0,2.069842815E-2,9.719925001E-3,3.544044495E-2,4.217732813E-2
1.281197084E0,6.325960159E-3,9.597798809E-3,2.327442169E-2,2.595831695E-2
1.285926824E0,6.318062544E-3,-7.084615529E-3,-2.202987671E-2,2.398802116E-2
1.290656511E0,-1.740275323E-2,-9.354643524E-3,-9.307289124E-2,9.514687729E-2
1.295386251E0,-1.495257020E-2,-1.398066618E-2,-5.430793762E-2,5.803783655E-2
1.300115938E0,-2.207645774E-2,-9.070789441E-3,-5.385208130E-2,5.890412437E-2
1.304845678E0,-1.486775279E-2,-8.977076039E-3,-1.778793335E-2,2.486058205E-2
1.309575365E0,1.842510700E-2,-8.914146572E-3,3.696632385E-2,4.225465272E-2
1.314305105E0,1.597073674E-2,1.486126147E-2,3.428268433E-2,4.063525525E-2
1.319034792E0,1.609086990E-3,2.854797989E-3,1.975250244E-2,2.002249698E-2
1.323764532E0,1.113730669E-2,-9.024659172E-3,-4.214096069E-2,4.451229764E-2
1.328494272E0,-1.039186120E-2,-3.502076864E-2,-4.653644562E-2,5.916152285E-2
1.333223959E0,-1.749680936E-2,-2.287006564E-2,-3.902435303E-2,4.849823058E-2
1.337953699E0,-7.440745831E-4,-8.474949747E-3,6.409645081E-3,1.065185290E-2
1.342683386E0,3.998398781E-3,1.051926427E-2,5.384063721E-2,5.500414828E-2
1.347413126E0,3.006869555E-2,1.991555840E-2,7.001113892E-2,7.875478075E-2
1.352142813E0,2.748903632E-2,1.976390183E-2,5.992984772E-2,6.883200986E-2
1.356872553E0,-1.241892576E-3,1.483826339E-2,4.281234741E-2,4.532784408E-2
1.361602240E0,1.158803701E-3,-2.805888280E-2,-2.164649963E-2,3.545722319E-2
1.366331980E0,3.425687551E-3,-1.828338578E-2,-1.671504974E-2,2.500820703E-2
1.371061667E0,2.237841487E-2,-3.871828318E-3,-7.079124451E-3,2.378862143E-2
1.375791407E0,1.508593559E-2,3.184793517E-3,5.470752716E-2,5.683873583E-2
1.380521094E0,1.503354311E-2,1.490319148E-2,1.064805984E-1,1.085644066E-1
1.385250834E0,3.400331736E-2,1.473786682E-2,4.623794556E-2,5.925688077E-2
1.389980522E0,1.708894968E-2,3.124915808E-2,4.585266113E-2,5.806038766E-2
1.394710261E0,2.831935883E-3,1.673197560E-2,3.576278687E-4,1.697370808E-2
1.399439949E0,-1.382273436E-2,-1.188139059E-2,-1.389026642E-2,2.291669541E-2
1.404169688E0,-1.134553552E-2,1.194722019E-2,-6.651878357E-3,1.776808184E-2
1.408899376E0,6.646811962E-4,-7.215142250E-3,-4.222869873E-3,8.386459846E-3
1.413629115E0,-8.877962828E-3,7.020251825E-3,4.804420471E-2,4.935937364E-2
1.418358855E0,1.735654473E-2,2.588530816E-2,5.951499939E-2,6.718135140E-2
1.423088542E0,1.013448834E-2,1.138280891E-2,3.527641296E-2,3.842787405E-2
1.427818282E0,-6.523996592E-3,1.842547022E-2,-7.754325867E-3,2.102831553E-2
1.432547969E0,-1.676499844E-3,1.356872357E-2,-5.517387390E-2,5.684256567E-2
1.437277709E0,-2.072472870E-2,-2.216921747E-2,-5.708599091E-2,6.465136457E-2
1.442007397E0,-2.774347365E-2,-3.003938124E-3,-5.898189545E-2,6.525019513E-2
1.446737136E0,-3.839612007E-3,-7.769862190E-3,-1.509666443E-3,8.797299107E-3
1.451466824E0,2.944681048E-2,1.127618924E-2,3.411388397E-2,4.645453876E-2
1.456196563E0,1.500135660E-2,2.069541626E-2,-1.782417297E-3,2.562260653E-2
1.460926251E0,2.441787720E-2,-8.000545204E-4,2.434635162E-2,3.449083431E-2
1.465655990E0,-4.230380058E-3,-1.024642214E-2,-4.233360291E-2,4.376093254E-2
1.470385678E0,-2.537512779E-2,-4.112305865E-2,-8.709526062E-2,9.960214599E-2
1.475115417E0,-2.995246649E-2,-1.705153473E-2,-6.500053406E-2,7.357291970E-2
1.479845105E0,-2.264934778E-2,-1.697981171E-2,-5.496025085E-2,6.182180954E-2
1.484574844E0,1.554229856E-2,-3.358467668E-2,1.197242737E-2,3.889514840E-2
1.489304532E0,1.184314489E-3,-2.453526482E-3,2.374458313E-2,2.390036864E-2
1.494034272E0,1.772436500E-2,4.791406915E-3,1.405239105E-2,2.312099455E-2
1.498763959E0,-8.579552174E-3,-4.671549425E-3,-2.879905701E-2,3.041081673E-2
1.503493699E0,-8.491635323E-3,-1.877623051E-2,-7.604312897E-2,7.878586273E-2
1.508223386E0,-2.742613852E-2,-3.762558848E-2,-5.166816711E-2,6.955197679E-2
1.512953126E0,-1.533898711E-2,-1.835921779E-2,-4.886245728E-2,5.440482639E-2
1.517682865E0,3.741472960E-3,3.091514111E-3,3.776550293E-3,6.149667594E-3
1.522412553E0,8.361339569E-3,-8.876876906E-3,2.748966217E-2,3.007311871E-2
1.527142292E0,1.777622104E-2,1.732855849E-2,3.913211823E-2,4.634215846E-2
1.531871980E0,8.176386356E-3,-4.167340696E-3,3.642940521E-2,3.756756029E-2
1.536601719E0,3.404885530E-3,5.379812792E-3,-6.608963013E-3,9.176819888E-3
1.541331407E0,-8.421003819E-3,1.007215865E-2,-3.742027283E-2,3.965650645E-2
1.546061147E0,-2.026219666E-2,-1.373665221E-2,-5.609989166E-2,6.120825167E-2
1.550790834E0,8.355885744E-3,-2.078574337E-2,-3.426361084E-2,4.093730550E-2
1.555520574E0,1.536837220E-2,5.460450426E-3,4.674339294E-2,4.950705169E-2
1.560250261E0,2.466803789E-2,2.671114728E-2,7.009601593E-2,7.896485884E-2
1.564980001E0,1.023399830E-2,2.885005996E-2,4.814529419E-2,5.705287051E-2
1.569709688E0,1.734450459E-2,1.912888698E-2,2.874851227E-2,3.864224520E-2
1.574439428E0,-6.525158882E-3,-1.428047009E-2,-2.609539032E-2,3.045453858E-2
1.579169115E0,6.110668182E-4,1.000240445E-4,-1.875495911E-2,1.876517782E-2
1.583898855E0,-1.367944479E-2,-1.175571606E-2,-1.622390747E-2,2.425982777E-2
1.588628542E0,1.491227746E-2,1.207108237E-2,3.139400482E-2,3.679226260E-2
1.593358282E0,1.717838645E-2,4.514049366E-2,9.998226166E-2,1.110369928E-1
1.598087969E0,4.319578409E-2,1.866452768E-2,4.929161072E-2,6.814619024E-2
1.602817709E0,2.866438031E-2,8.999744430E-3,5.362701416E-2,6.146949444E-2
1.607547397E0,4.728943110E-3,4.192288965E-3,9.479522705E-4,6.390368002E-3
1.612277136E0,-1.197019219E-2,1.135413907E-2,-2.280044556E-2,2.814360128E-2
1.617006824E0,-2.855856717E-2,-1.483950205E-2,-2.498245239E-2,4.074218339E-2
1.621736563E0,-2.273797989E-3,1.889010891E-3,-2.477264404E-2,2.494839498E-2
1.626466251E0,4.798680544E-3,2.325567044E-2,6.090545654E-2,6.537069817E-2
1.631195990E0,1.902011037E-2,3.011392988E-2,5.089950562E-2,6.212385245E-2
1.635925730E0,2.368342876E-2,3.934615850E-2,2.910709381E-2,5.437138859E-2
1.640655417E0,1.411995292E-2,1.054356247E-2,3.709793091E-4,1.762604339E-2
1.645385157E0,-1.206833124E-2,-8.550900966E-3,-3.761863708E-2,4.042183052E-2
1.650114844E0,-2.622470260E-2,-2.036303282E-2,-5.392551422E-2,6.332731809E-2
1.654844584E0,-1.420453191E-2,-2.973029763E-2,-4.397678375E-2,5.495104033E-2
1.659574272E0,-2.124910057E-2,-5.810679868E-3,-1.512050629E-2,2.671924373E-2
1.664303959E0,1.693084836E-2,-3.486970440E-3,2.536582947E-2,3.069589376E-2
1.669033699E0,2.161154151E-2,-1.097179949E-3,2.515220642E-2,3.317975314E-2
1.673763438E0,9.605735540E-3,1.079777256E-2,2.256774902E-2,2.679860712E-2
1.678493126E0,7.196515799E-3,-2.011258155E-2,-5.121994019E-2,5.549583812E-2
1.683222865E0,2.145767212E-6,-3.411783278E-2,-8.878040314E-2,9.511039112E-2
1.687952553E0,-2.855665982E-2,-3.152897581E-2,-4.292964935E-2,6.043603171E-2
1.692682292E0,-4.589259624E-3,-4.558072984E-2,-6.868743896E-2,8.256287609E-2
1.697411980E0,7.307529449E-3,-3.339898586E-2,5.484580994E-3,3.462618766E-2
1.702141719E0,1.203995943E-2,-1.654351689E-2,2.917957306E-2,3.563840706E-2
1.706871407E0,1.441565156E-2,1.437757164E-4,-6.677627563E-3,1.588780637E-2
1.711601147E0,9.563565254E-3,-3.073322400E-2,9.996414185E-3,3.370342912E-2
1.716330834E0,-2.398878336E-3,-2.568527497E-2,-7.080745697E-2,7.536036047E-2
1.721060574E0,-1.663589478E-2,-3.497970104E-2,-8.921051025E-2,9.725660707E-2
1.725790261E0,-2.131469548E-2,-3.238211200E-2,-3.385925293E-2,5.147199656E-2
1.730520001E0,-9.249895811E-3,-1.072909683E-2,-5.494594574E-2,5.674267393E-2
1.735249688E0,-1.633578539E-2,8.283907548E-3,4.047870636E-2,4.442979493E-2
1.739979428E0,2.809852362E-3,-3.639265895E-3,3.776454926E-2,3.804340557E-2
1.744709115E0,-6.693720818E-3,-3.593107685E-3,2.083015442E-2,2.217231730E-2
1.749438855E0,-1.371538639E-2,-3.548100591E-3,-1.258277893E-2,1.894801222E-2
1.754168542E0,-4.210279882E-2,-2.012250386E-2,-2.909660339E-2,5.499248275E-2
1.758898282E0,-2.039672434E-2,-1.284424961E-2,-4.072475433E-2,4.732342683E-2
1.763627969E0,-8.425116539E-3,-2.221644297E-2,-1.901626587E-2,3.043306252E-2
1.768357709E0,1.129567623E-3,1.828885637E-2,5.236721039E-2,5.548047327E-2
1.773087397E0,3.200042248E-2,3.231251612E-2,5.193042755E-2,6.902821918E-2
1.777817136E0,1.513114572E-2,4.627549276E-2,6.811714172E-2,8.372764058E-2
1.782546876E0,-6.317466497E-3,1.026576012E-2,3.431034088E-2,3.636613404E-2
1.787276563E0,-1.499950886E-3,7.548816502E-4,-4.432296753E-2,4.435476468E-2
1.792006303E0,-6.247878075E-3,-8.645972237E-3,-3.592491150E-3,1.125587886E-2
1.796735990E0,7.980138063E-3,5.714511499E-3,-3.442382812E-2,3.579578450E-2
1.801465678E0,2.211809158E-2,5.568053573E-3,8.597373962E-3,2.437474174E-2
1.806195417E0,2.195021510E-2,2.207109332E-2,1.082391739E-1,1.126262131E-1
1.810925157E0,4.558226466E-2,4.567219689E-2,4.086017609E-2,7.637569254E-2
1.815654844E0,2.379468083E-2,1.927646995E-2,5.476474762E-2,6.274509313E-2
1.820384584E0,4.534184933E-3,2.631106973E-2,9.201049805E-3,2.823987501E-2
1.825114272E0,3.051453829E-2,-2.844079211E-2,-6.447124481E-2,7.678904291E-2
1.829844011E0,1.348686218E-2,-4.475723952E-3,-2.831745148E-2,3.168289151E-2
1.834573699E0,-8.538961411E-4,-1.640802249E-2,-1.383686066E-2,2.148048076E-2
1.839303438E0,2.528527379E-2,2.781394869E-4,2.663898468E-2,3.672952405E-2
1.844033126E0,1.073220372E-2,1.691068336E-2,6.440639496E-2,6.744875922E-2
1.848762865E0,2.970951796E-2,1.910123788E-2,2.350711823E-2,4.242755417E-2
1.853492553E0,8.281946182E-3,-1.671129093E-2,-4.348754883E-4,1.865601763E-2
1.858222292E0,-1.308110356E-2,-2.367787063E-2,-3.841972351E-2,4.698757264E-2
1.862951980E0,-2.010671794E-2,-2.352091298E-2,-6.184101105E-2,6.915073464E-2
1.867681719E0,-1.995120943E-2,-4.001354799E-2,-4.945278168E-2,6.666867627E-2
1.872411407E0,-1.979710162E-2,6.400588900E-4,-6.305694580E-3,2.078693561E-2
1.877141147E0,-5.399286747E-3,5.936007947E-4,3.648090363E-2,3.688307184E-2
1.881870834E0,-5.366265774E-3,1.713731326E-2,2.905559540E-2,3.415716525E-2
1.886600574E0,1.377341151E-2,3.920700401E-4,1.456737518E-2,2.005165837E-2
1.891330261E0,-5.414187908E-4,-1.855929941E-2,-3.541183472E-2,3.998423148E-2
1.896060001E0,-5.268752575E-3,-2.551124990E-2,-9.209823608E-2,9.571138237E-2
1.900789688E0,-4.325164855E-2,-1.106718369E-2,-6.046581268E-2,7.516183979E-2
1.905519428E0,1.421877742E-2,-3.249807656E-2,-4.334545135E-2,5.601005949E-2
1.910249115E0,-9.653210640E-3,-1.084410027E-2,9.247779846E-3,1.721337905E-2
1.914978855E0,1.424217224E-2,3.671581671E-2,4.478073120E-2,5.963392116E-2
1.919708542E0,1.888829470E-2,1.268342882E-2,2.303981781E-2,3.238009030E-2
1.924438282E0,-7.311433554E-3,3.630734235E-2,1.097393036E-2,3.862780497E-2
1.929167969E0,1.419031620E-2,-2.090276033E-2,-6.984043121E-2,7.426961892E-2
1.933897709E0,-1.442959905E-2,-2.303147502E-2,-5.501270294E-2,6.136008194E-2
1.938627397E0,-1.669558883E-2,-1.100915484E-2,-4.743194580E-2,5.147556371E-2
1.943357136E0,1.666957140E-2,-3.921501338E-3,5.194664001E-3,1.789517582E-2
1.948086824E0,2.129527926E-2,-1.640437171E-3,6.925392151E-2,7.247265414E-2
1.952816563E0,1.878848672E-2,3.637620062E-2,3.543758392E-2,5.414847698E-2
1.957546251E0,1.401403546E-2,1.703798771E-2,3.751182556E-2,4.351807983E-2
1.962275990E0,4.502832890E-3,-4.487046972E-3,6.332397461E-3,8.972644658E-3
1.967005678E0,-2.641049027E-2,-1.633457839E-2,-3.882884979E-2,4.971933250E-2
1.971735417E0,-1.433169842E-2,-1.140585542E-2,-4.325389862E-2,4.697223502E-2
1.976465105E0,-1.662692428E-2,1.007235050E-2,-1.573562622E-4,1.944046338E-2
1.981194844E0,-1.180922985E-2,3.606446832E-2,4.732894897E-2,6.066410138E-2
1.985924532E0,9.644508362E-3,2.385206521E-2,7.542324066E-2,7.969066939E-2
1.990654272E0,4.047307372E-2,4.028740525E-2,5.342578888E-2,7.820140431E-2
1.995383959E0,2.118760347E-2,2.337617800E-2,2.211666107E-2,3.852929970E-2
2.000113699E0,-7.519155741E-3,-1.235882379E-2,-3.504562378E-2,3.791403401E-2
2.004843386E0,-2.423003316E-2,-3.360656276E-2,-2.050590515E-2,4.622756444E-2
2.009573126E0,1.160052419E-2,-2.864781581E-2,-2.508258820E-2,3.980459449E-2
2.014302813E0,2.052247524E-3,-2.335349098E-3,8.362770081E-3,8.921967201E-3
2.019032553E0,9.259492159E-3,1.414811611E-2,7.714080811E-2,7.897222081E-2
2.023762240E0,1.883780956E-2,1.870813780E-2,3.376007080E-2,4.294880521E-2
2.028491980E0,3.299897909E-2,9.100722149E-3,4.297351837E-2,5.494068662E-2
2.033221667E0,1.858091354E-2,-9.923215955E-3,-1.199245453E-2,2.423921469E-2
2.037951407E0,-2.909730375E-2,-2.881864086E-2,-4.987716675E-2,6.453602799E-2
2.042681147E0,-2.426096797E-2,-1.909454167E-2,-4.233551025E-2,5.239743808E-2
2.047410834E0,-3.293752670E-4,1.663567126E-2,-4.198265076E-2,4.515968347E-2
2.052140522E0,-2.655774355E-3,1.642667130E-2,2.246856689E-2,2.795934845E-2
2.056870261E0,1.394498348E-2,6.779780611E-3,2.465629578E-2,2.912663576E-2
2.061600001E0,1.862198114E-2,1.860985346E-2,4.106903076E-2,4.878288753E-2
2.066329688E0,3.041073680E-2,4.255732521E-3,3.643035889E-4,3.070923133E-2
2.071059376E0,-7.727265358E-3,-5.202762783E-3,-4.712486267E-2,4.803677812E-2
2.075789115E0,-3.619308770E-2,-1.938923448E-2,-5.860137939E-2,7.155420098E-2
2.080518855E0,-2.397581935E-2,-1.929725707E-2,-2.962493896E-2,4.271839244E-2
2.085248542E0,-2.384510636E-2,1.171560213E-2,-1.988029480E-2,3.318238316E-2
2.089978230E0,1.667359471E-2,1.632514410E-2,6.402015686E-3,2.419720842E-2
2.094707969E0,1.420542598E-2,2.801872417E-2,3.483772278E-2,4.690959347E-2
2.099437709E0,4.720777273E-3,4.031110555E-3,1.792526245E-2,1.896972916E-2
2.104167397E0,-7.144302130E-3,-1.023230888E-2,-2.495956421E-2,2.790557370E-2
2.108897136E0,-1.416230202E-2,-1.015968435E-2,-4.849433899E-2,5.153145543E-2
2.113626824E0,-1.411333680E-2,-2.673440613E-2,-6.470775604E-2,7.142134442E-2
2.118356563E0,-4.568189383E-3,-3.127178922E-2,-4.042530060E-2,5.131274777E-2
2.123086251E0,1.442244649E-2,-1.686359942E-2,1.689243317E-2,2.788803052E-2
2.127815990E0,1.915240288E-2,1.409973763E-2,4.286384583E-2,4.901965337E-2
2.132545678E0,3.574216366E-2,2.349466085E-2,2.350997925E-2,4.880799602E-2
2.137275417E0,6.970942020E-3,1.622072980E-2,3.280925751E-2,3.725793185E-2
2.142005105E0,-2.501606941E-4,-5.236698315E-3,-2.919101715E-2,2.965806925E-2
2.146734792E0,-1.444816589E-2,-2.173854783E-2,-5.743885040E-2,6.309148512E-2
2.151464532E0,-2.149061859E-2,-1.682250947E-2,-6.883049011E-2,7.404377004E-2
2.156194272E0,-2.131193876E-3,-2.534726635E-3,-2.315235138E-2,2.338799266E-2
2.160923959E0,1.206240058E-2,2.137402073E-3,5.301475525E-2,5.441171078E-2
2.165653699E0,2.628034353E-2,9.227853268E-3,4.782390594E-2,5.534379560E-2
2.170383386E0,9.600937366E-3,-2.997945994E-4,5.216789246E-2,5.304485723E-2
2.175113074E0,6.914138794E-5,2.121923491E-3,8.997917175E-3,9.244990715E-3
2.179842813E0,-2.362790704E-2,-2.263672650E-4,-6.230258942E-2,6.663288888E-2
2.184572553E0,-1.626366377E-2,-1.682768576E-2,-5.703449249E-2,6.164909651E-2
2.189302240E0,-9.017795324E-3,-2.147609740E-2,-3.756713867E-2,4.420218660E-2
2.194031980E0,-8.954584599E-3,-4.691502079E-3,7.854461670E-3,1.280184929E-2
2.198761667E0,1.719510555E-2,2.147905156E-2,4.815196991E-2,5.545839447E-2
2.203491407E0,-1.896560192E-3,3.553307801E-2,8.098697662E-2,8.845952157E-2
2.208221094E0,1.727131009E-2,2.042431384E-3,1.620578766E-2,2.377177385E-2
2.212950834E0,-1.131755114E-2,-2.706285566E-3,-1.242160797E-2,1.702078993E-2
2.217680522E0,-1.123535633E-2,-4.984334111E-3,-5.030441284E-2,5.178427145E-2
2.222410261E0,7.839560509E-3,-4.056919366E-2,-7.362651825E-2,8.442856373E-2
2.227139949E0,5.827546120E-4,-2.837225050E-2,1.720714569E-2,3.318749861E-2
2.231869688E0,2.427878976E-2,1.221282594E-2,1.706504822E-2,3.209094296E-2
2.236599376E0,4.311451316E-2,2.634329535E-2,3.828811646E-2,6.339408739E-2
2.241329115E0,2.855533361E-2,1.664223708E-2,7.120704651E-2,7.850359613E-2
2.246058803E0,2.598813176E-2,1.420218870E-2,-3.622531891E-2,4.679058545E-2
2.250788542E0,4.449039698E-3,-1.433239132E-2,-5.016994476E-2,5.236635134E-2
2.255518230E0,-1.227605343E-2,-2.369371802E-2,-3.550529480E-2,4.441530952E-2
2.260247969E0,-1.461687684E-2,-1.163817383E-2,-4.945182800E-2,5.286382006E-2
2.264977657E0,-7.413148880E-3,-2.105042525E-2,4.592704773E-2,5.106240195E-2
2.269707397E0,9.255558252E-3,-1.144723408E-2,4.317188263E-2,4.561267342E-2
2.274437084E0,3.768450022E-2,5.283793435E-3,6.417846680E-2,7.461176603E-2
2.279166824E0,6.579935551E-3,5.284067243E-3,1.853275299E-2,2.036368955E-2
2.283896511E0,-5.272209644E-3,1.006110571E-2,-2.198410034E-2,2.474515529E-2
2.288626199E0,6.658762693E-3,-3.980629146E-2,-5.978870392E-2,7.213576836E-2
2.293355938E0,-5.279541016E-3,-1.568802260E-2,-8.777999878E-2,8.932701603E-2
2.298085626E0,-5.276143551E-3,-8.446721360E-3,-3.952026367E-3,1.071463041E-2
2.302815365E0,1.383438706E-2,1.051879302E-2,3.643894196E-2,4.037117490E-2
2.307545105E0,1.854076982E-2,1.276417263E-2,3.613376617E-2,4.257150815E-2
2.312274792E0,1.605689526E-2,2.926496603E-2,3.820514679E-2,5.073357235E-2
2.317004532E0,1.359385252E-2,-4.172679037E-3,-4.520893097E-2,4.739252595E-2
2.321734219E0,-2.920921147E-2,-8.841905743E-3,-5.432891846E-2,6.231363184E-2
2.326463959E0,-2.660369873E-2,-2.302575298E-2,-6.812191010E-2,7.667161614E-2
2.331193647E0,-3.639459610E-4,-1.809667796E-2,-7.942104340E-2,8.145750023E-2
2.335923386E0,4.346847534E-3,1.047432236E-2,-1.703166962E-2,2.046177613E-2
2.340653074E0,-2.176000178E-2,5.568398163E-3,3.296661377E-2,3.989113133E-2
2.345382813E0,1.645267010E-2,5.480116233E-3,4.201889038E-3,1.784314711E-2
2.350112501E0,1.870623231E-2,1.488916203E-2,2.078628540E-2,3.168090804E-2
2.354842240E0,-3.129041195E-2,-3.029866144E-2,-3.874206543E-2,5.829276455E-2
2.359571928E0,-3.810730577E-2,-4.192878306E-2,-7.878017426E-2,9.703868021E-2
2.364301667E0,-2.367067337E-2,-2.966511436E-2,-4.013538361E-2,5.523738593E-2
2.369031355E0,-6.866276264E-3,-1.521565579E-2,-2.555561066E-2,3.052459937E-2
2.373761094E0,-4.418551922E-3,-5.661068484E-3,1.976680756E-2,2.103088154E-2
2.378490782E0,9.879440069E-3,3.710966930E-2,6.708526611E-2,7.729918383E-2
2.383220522E0,2.176973224E-2,6.008487195E-3,4.752922058E-2,5.262176326E-2
2.387950209E0,2.658963203E-4,3.628563136E-3,-7.472991943E-3,8.311605132E-3
2.392679949E0,-1.159062982E-2,-3.194112703E-2,-3.590202332E-2,4.943211076E-2
2.397409636E0,-4.412204027E-3,-1.738500595E-2,-4.509830475E-2,4.853414332E-2
2.402139376E0,-2.070367336E-3,-1.482092217E-2,-1.148319244E-2,1.886292298E-2
2.406869063E0,2.805590630E-4,1.372279227E-2,6.221199036E-2,6.370812731E-2
2.411598803E0,1.682832837E-2,1.356656104E-2,8.781051636E-2,9.043191360E-2
2.416328490E0,4.276311398E-2,1.824686304E-2,7.758331299E-2,9.044778815E-2
2.421058230E0,1.393333077E-2,4.665812850E-2,7.456207275E-2,8.905403615E-2
2.425787917E0,6.853461266E-3,2.729271352E-2,4.544639587E-2,5.345312938E-2
2.430517657E0,-3.381967545E-4,-1.327863894E-2,2.132606506E-2,2.512444388E-2
2.435247344E0,-9.929418564E-3,1.064259559E-3,-2.870559692E-2,3.039304684E-2
2.439977084E0,4.329115152E-3,-6.107401103E-3,2.376747131E-2,2.491855290E-2
2.444706772E0,6.655126810E-3,9.678713977E-4,8.292293549E-2,8.319519648E-2
2.449436511E0,3.993973136E-2,1.753694750E-2,4.661750793E-2,6.384292220E-2
2.454166199E0,2.060154080E-2,2.696095407E-2,7.709217072E-2,8.422896956E-2
2.458895938E0,1.097819209E-2,7.758928463E-3,1.234626770E-2,1.825245185E-2
2.463625626E0,-1.755821705E-2,-8.936643600E-3,-2.811717987E-2,3.433264319E-2
2.468355365E0,-1.030158997E-2,-2.074478567E-2,-3.262996674E-2,4.001479248E-2
2.473085053E0,-7.939159870E-3,-1.583549194E-2,-6.322002411E-2,6.565488948E-2
2.477814792E0,-5.567759275E-3,9.020883590E-4,1.565647125E-2,1.664147826E-2
2.482544480E0,1.617401838E-3,-6.296699867E-3,2.027320862E-2,2.129007763E-2
2.487274219E0,4.200938344E-2,2.226137742E-2,3.434753418E-2,5.865245371E-2
2.492003907E0,1.796284318E-2,3.126215190E-3,-1.342296600E-2,2.264095786E-2
2.496733647E0,1.153498888E-3,-3.948720172E-3,-5.604362488E-2,5.619440221E-2
2.501463334E0,-8.364737034E-3,-3.238976002E-2,-5.795001984E-2,6.691240676E-2
2.506193074E0,-2.014927566E-2,-2.975911833E-2,-1.215696335E-1,1.267705574E-1
2.510922761E0,-2.245296538E-2,-2.002717927E-2,-6.832313538E-2,7.465436619E-2
2.515652501E0,1.520723104E-3,-8.820611984E-4,-8.400917053E-3,8.582892173E-3
2.520382188E0,2.057462931E-2,8.609235287E-3,-4.157161713E-2,4.717662190E-2
2.525111928E0,1.332566142E-2,1.567575894E-2,1.575279236E-2,2.591241281E-2
2.529841615E0,2.750432491E-2,-5.777137354E-3,-4.848098755E-2,5.603810631E-2
2.534571355E0,1.310357451E-2,-2.467788570E-2,-6.707191467E-2,7.265909059E-2
2.539301042E0,-1.073074341E-2,-1.021075435E-2,-4.039859772E-2,4.302853769E-2
2.544030782E0,-1.777589321E-2,1.790136099E-3,-8.279609680E-2,8.470171552E-2
2.548760469E0,1.324892044E-3,2.318683453E-2,-8.506774902E-3,2.473357745E-2
2.553490209E0,1.554661989E-2,3.719817102E-2,-1.312255859E-3,4.033761684E-2
2.558219897E0,1.079919934E-2,2.494632825E-2,1.768684387E-2,3.243094889E-2
2.562949584E0,-1.058465242E-2,2.472502925E-2,1.991367340E-2,3.346515092E-2
2.567679324E0,6.167441607E-3,3.195939586E-3,-8.234214783E-2,8.263462153E-2
2.572409063E0,-3.425672650E-2,-1.111436822E-2,-3.179931641E-2,4.804424019E-2
2.577138751E0,-2.211253345E-2,-3.240172192E-2,-7.901763916E-2,8.821917602E-2
2.581868490E0,4.203796387E-3,-2.739604935E-2,-5.461788177E-2,6.124808922E-2
2.586598178E0,-5.368381739E-3,1.792918891E-2,4.317855835E-2,4.706020865E-2
2.591327917E0,1.134034991E-2,1.773791015E-2,3.332138062E-2,3.941511637E-2
2.596057605E0,2.316159010E-2,2.235344611E-2,4.491424561E-2,5.525780730E-2
2.600787344E0,6.366014481E-3,2.452790365E-2,1.842308044E-2,3.132976366E-2
2.605517032E0,-7.930099964E-4,-2.554624528E-2,-3.158760071E-2,4.063269658E-2
2.610246719E0,-5.518257618E-3,-3.718827665E-2,-4.794406891E-2,6.092661841E-2
2.614976459E0,1.609563828E-3,-2.027120814E-2,-2.142810822E-2,2.954109674E-2
2.619706199E0,-5.538374186E-3,-3.679010272E-2,3.335666656E-2,4.996851460E-2
2.624435886E0,2.538803220E-2,3.836665303E-3,6.869220734E-2,7.333410890E-2
2.629165574E0,2.290424705E-2,-1.048206538E-2,6.574153900E-2,7.040190464E-2
2.633895313E0,8.541911840E-3,1.095920056E-2,4.857349396E-2,5.052180371E-2
2.638625053E0,1.091811061E-2,-2.235359885E-2,6.837844849E-4,2.488686565E-2
2.643354740E0,-1.295477152E-2,-2.690056339E-2,5.427360535E-3,3.034670753E-2
2.648084480E0,-8.110493422E-3,-1.719321311E-2,2.200126648E-2,2.907649235E-2
2.652814167E0,-5.680769682E-3,-1.943672448E-2,3.131389618E-2,3.729098412E-2
2.657543907E0,8.542537689E-3,9.116211906E-3,8.803367615E-2,8.891573767E-2
2.662273594E0,1.555329561E-2,-2.872377634E-3,1.015462875E-1,1.027706382E-1
2.667003334E0,4.398691654E-2,9.037353098E-3,9.120178223E-2,1.016576985E-1
2.671733022E0,-1.357972622E-3,1.135046780E-2,5.719947815E-2,5.833058811E-2
2.676462761E0,-1.322928071E-2,1.370126382E-2,1.398754120E-2,2.363027311E-2
2.681192449E0,-1.318785548E-2,-1.248578355E-2,1.387310028E-2,2.285338562E-2
2.685922136E0,1.183390617E-3,-1.711497456E-2,-9.984016418E-3,1.984951766E-2
2.690651876E0,3.535568714E-3,1.147707365E-2,7.081985474E-2,7.183087978E-2
2.695381563E0,2.958112955E-2,3.270841390E-2,5.598640442E-2,7.126963621E-2
2.700111303E0,8.012235165E-3,2.767489664E-2,6.264209747E-2,6.895018631E-2
2.704840990E0,-8.571565151E-3,6.062751636E-3,8.348274231E-2,8.414034080E-2
2.709570730E0,-1.314640045E-2,1.077480800E-2,-2.683639526E-3,1.720831931E-2
2.714300417E0,-2.972488105E-2,-5.918182433E-3,6.836891174E-3,3.106986511E-2
2.719030157E0,-1.530128717E-2,-2.962299250E-2,-3.357791901E-2,4.731942221E-2
2.723759897E0,-9.979009628E-4,-3.301637247E-3,-2.432823181E-3,4.220810760E-3
2.728489584E0,-1.058667898E-3,8.584739640E-3,3.082656860E-2,3.201711830E-2
2.733219272E0,2.745628357E-2,1.556680538E-2,2.107334137E-2,3.795073983E-2
2.737949011E0,-1.188904047E-3,2.723820508E-2,5.175876617E-2,5.850045457E-2
2.742678699E0,-3.422886133E-3,1.038030535E-2,-2.939701080E-2,3.136321305E-2
2.747408438E0,-1.522025466E-2,-1.531846821E-3,-5.526828766E-2,5.734619715E-2
2.752138126E0,-4.105028510E-2,-2.058110386E-2,-8.330059052E-2,9.511937827E-2
2.756867865E0,-4.052102566E-2,2.465962991E-2,-6.836795807E-2,8.321194961E-2
2.761597553E0,-1.173391938E-2,6.415192038E-4,-3.930759430E-2,4.102661795E-2
2.766327292E0,1.684170961E-2,2.196084708E-2,6.128311157E-3,2.834569076E-2
2.771056980E0,1.909187436E-2,1.942029223E-2,1.557445526E-2,3.137213849E-2
2.775786719E0,4.675924778E-3,2.739913762E-3,-2.966499329E-2,3.015598161E-2
2.780516407E0,-1.233816147E-4,3.872420639E-4,-4.128837585E-2,4.129037612E-2
2.785246147E0,-1.060068607E-4,-2.571501397E-2,-9.080314636E-2,9.437417322E-2
2.789975834E0,-1.193106174E-2,-1.126770861E-2,-1.137886047E-1,1.149658996E-1
2.794705574E0,-7.066905499E-3,7.127560675E-4,-5.348682404E-2,5.395636682E-2
2.799435261E0,1.903855801E-2,-8.773183450E-3,1.343631744E-2,2.489919808E-2
2.804165001E0,2.364456654E-2,1.500106417E-2,6.201744080E-3,2.868029084E-2
2.808894688E0,9.275972843E-3,5.366820842E-3,2.989006042E-2,3.175314394E-2
2.813624428E0,9.243488312E-3,-1.726809889E-3,-3.598213196E-3,1.006832095E-2
2.818354115E0,-1.930691302E-2,-2.540960163E-2,-5.579948425E-2,6.428053506E-2
2.823083855E0,-2.153210342E-2,-2.283711731E-2,-6.245803833E-2,6.990115848E-2
2.827813542E0,-1.901905239E-2,-1.545160450E-2,-3.819465637E-2,4.537960126E-2
2.832543282E0,-2.281904221E-3,-1.773963124E-2,1.910495758E-2,2.617061343E-2
2.837272969E0,1.917779446E-2,2.038192563E-2,4.268550873E-2,5.104178041E-2
2.842002709E0,3.568190336E-2,1.067437045E-2,7.319164276E-2,8.212281645E-2
2.846732397E0,1.881042123E-2,2.719181217E-2,6.783294678E-2,7.546214458E-2
2.851462136E0,4.482150078E-3,-8.574232459E-3,-3.244781494E-2,3.385953080E-2
2.856191824E0,-1.933707297E-2,-4.410070926E-2,-8.436203003E-3,4.888726285E-2
2.860921563E0,-2.164764702E-2,-1.997435838E-2,-2.260780334E-2,3.713096264E-2
2.865651251E0,-4.860252142E-3,-1.744639874E-2,1.556587219E-2,2.388085545E-2
2.870380990E0,-1.907677948E-2,1.827085949E-2,8.428668976E-2,8.832889614E-2
2.875110678E0,1.439365745E-2,2.039469406E-2,5.984115601E-2,6.483891480E-2
2.879840417E0,9.513318539E-3,1.778176241E-2,1.115760803E-1,1.133839319E-1
2.884570105E0,2.134957910E-2,1.088099554E-3,4.416847229E-2,4.906977107E-2
2.889299844E0,-1.222789288E-4,-1.077587530E-2,-2.742576599E-2,2.946705077E-2
2.894029532E0,-2.150054276E-2,-3.918926418E-2,-2.957057953E-2,5.359562426E-2
2.898759272E0,9.530544281E-3,-1.750800386E-2,-4.831695557E-2,5.226748194E-2
2.903488959E0,-7.208377123E-3,3.963340074E-3,5.654907227E-2,5.714425902E-2
2.908218699E0,1.660966873E-2,1.813330688E-2,7.269668579E-2,7.674311721E-2
2.912948386E0,4.738017917E-2,3.455933928E-2,5.309581757E-2,7.911001929E-2
2.917678126E0,1.892864704E-3,1.054646447E-2,8.114242554E-2,8.184683300E-2
2.922407813E0,2.566352487E-2,5.783081055E-3,-1.212596893E-2,2.896721695E-2
2.927137553E0,-1.721152663E-2,-1.081212237E-2,-5.476093292E-2,5.841145790E-2
2.931867240E0,-2.425965667E-2,-2.257616073E-2,-2.106475830E-2,3.926751860E-2
2.936596928E0,-7.479071617E-3,6.061391905E-3,-6.642341614E-3,1.169605430E-2
2.941326667E0,1.159277558E-2,2.021541074E-2,3.377246857E-2,4.103212047E-2
2.946056355E0,2.816015482E-2,4.143011570E-2,7.147693634E-2,8.728345339E-2
2.950786094E0,1.137983799E-2,3.875502944E-2,3.764152527E-2,5.521175096E-2
2.955515782E0,1.616379619E-2,9.985068813E-3,1.358222961E-2,2.335480395E-2
2.960245522E0,1.829266548E-3,4.765316844E-4,-3.401565552E-2,3.406813935E-2
2.964975209E0,-1.947973669E-2,-4.261441529E-3,-6.697273254E-2,6.987822930E-2
2.969704949E0,-2.173195779E-2,-1.133331098E-2,-7.828426361E-2,8.203138336E-2
2.974434636E0,-1.956820488E-4,-6.502447650E-3,3.088951111E-3,7.201509277E-3
2.979164376E0,2.356389165E-2,1.250379905E-2,3.155326843E-2,4.131840666E-2
2.983894063E0,9.167551994E-3,1.478958130E-2,2.179336548E-2,2.788774827E-2
2.988623803E0,1.385596395E-2,-1.937637106E-3,3.110694885E-2,3.410842185E-2
2.993353490E0,1.914650202E-3,-1.609358378E-2,-3.800487518E-2,4.131633892E-2
2.998083230E0,-2.185483277E-2,-3.968511522E-2,-8.279514313E-2,9.437996509E-2
3.002812917E0,-3.598646820E-2,-1.559863426E-2,-6.548500061E-2,7.633235611E-2
3.007542657E0,-1.433113217E-2,-2.500789426E-2,-6.019210815E-2,6.673729099E-2
3.012272344E0,-7.129788399E-3,-2.009231783E-2,1.390838623E-2,2.545541840E-2
3.017002084E0,2.143573761E-2,1.324436441E-2,1.616859436E-2,2.993872875E-2
3.021731772E0,1.180526614E-2,1.252146438E-3,8.909225464E-3,1.484272474E-2
3.026461511E0,-1.474022865E-4,-1.773564145E-2,-1.015853882E-2,2.043943776E-2
3.031191199E0,-4.821091890E-3,-1.279524341E-2,-8.604907990E-2,8.712867112E-2
3.035920938E0,-2.390444279E-3,-3.401087970E-2,-7.820987701E-2,8.531845653E-2
3.040650626E0,-1.428192854E-2,-1.474537700E-2,-6.806087494E-2,7.108925603E-2
3.045380313E0,2.472549677E-3,-5.167018622E-3,-4.375171661E-2,4.412509819E-2
3.050110053E0,-2.279847860E-3,1.956606284E-3,2.546405792E-2,2.564067589E-2
3.054839792E0,1.672035456E-2,2.094854414E-2,5.374050140E-2,6.005375300E-2
3.059569480E0,9.532123804E-3,8.889053017E-3,2.242660522E-2,2.593895275E-2
3.064299167E0,-9.438753128E-3,-6.080772728E-4,-1.812362671E-2,2.044323027E-2
3.069028907E0,-2.596271038E-2,1.815436408E-3,-3.934001923E-2,4.716985534E-2
3.073758594E0,-1.614800096E-2,-2.959862351E-3,-6.513118744E-2,6.716837274E-2
3.078488334E0,-1.837112010E-2,-1.719349250E-2,-2.422809601E-2,3.493014277E-2
3.083218022E0,3.108680248E-3,1.874165609E-3,6.381797791E-2,6.392112869E-2
3.087947761E0,1.971825957E-2,1.371664740E-2,5.141639709E-2,5.675034860E-2
3.092677449E0,1.968425512E-2,2.074061520E-2,8.897113800E-2,9.345323117E-2
3.097407188E0,1.487377286E-2,6.281774491E-3,4.549121857E-2,4.827153174E-2
3.102136876E0,-1.795858145E-3,-8.487123996E-4,-2.372741699E-3,3.094401781E-3
3.106866615E0,-6.455749273E-3,-8.835215122E-4,-2.354621887E-3,6.928315320E-3
3.111596303E0,7.368326187E-4,-1.996663772E-2,-1.895427704E-2,2.754040962E-2
3.116326042E0,5.438536406E-3,-5.625715479E-3,2.156543732E-2,2.294110807E-2
3.121055730E0,2.680537105E-2,2.756193839E-2,8.548641205E-2,9.373427873E-2
3.125785469E0,2.187860012E-2,2.014022134E-2,6.815433502E-2,7.435936418E-2
3.130515157E0,3.592911363E-2,8.117480204E-3,7.233524323E-2,8.117377719E-2
3.135244897E0,2.620661259E-2,1.043904200E-2,2.899551392E-2,4.045367682E-2
3.139974584E0,1.178824902E-2,-2.996414900E-2,-1.872920990E-2,3.725045427E-2
3.144704324E0,6.986618042E-3,5.885124207E-3,-1.620006561E-2,1.859810863E-2
3.149434011E0,1.641294360E-2,3.420807421E-3,-2.793598175E-2,3.258075686E-2
3.154163751E0,9.113311768E-3,-8.548812941E-3,6.963729858E-2,7.074947355E-2
3.158893438E0,2.092459798E-2,1.516505331E-2,7.855415344E-2,8.269566292E-2
3.163623126E0,3.272297978E-2,7.796026766E-4,4.465866089E-2,5.536964131E-2
3.168352865E0,3.976881504E-3,8.181948215E-4,2.766513824E-2,2.796148965E-2
3.173082553E0,-8.449852467E-4,-3.893373534E-3,-3.429126740E-2,3.452192603E-2
3.177812292E0,-1.269209385E-2,-2.999074757E-2,-4.112911224E-2,5.246082405E-2
3.182541980E0,-3.130257130E-3,-3.925006837E-2,-4.790782928E-2,6.201230913E-2
3.187271719E0,-3.116220236E-3,-3.181318566E-2,-2.139282227E-2,3.846352109E-2
3.192001407E0,-1.016768813E-2,-3.128681332E-3,4.051303864E-2,4.188647548E-2
3.196731147E0,1.839473844E-2,1.112962700E-2,2.593040466E-2,3.368413403E-2
3.201460834E0,-1.260602474E-2,1.105271094E-2,3.520965576E-2,3.899736065E-2
3.206190574E0,-1.242733002E-2,-1.511301100E-2,-5.530261993E-2,5.866192466E-2
3.210920261E0,-1.942972839E-2,-1.019522920E-2,-8.333206177E-2,8.617244085E-2
3.215650001E0,-5.014388263E-2,-1.249629632E-2,-4.227733612E-2,6.676780314E-2
3.220379688E0,-1.415431499E-2,-1.240480505E-2,-6.329154968E-2,6.603062988E-2
3.225109428E0,2.248883247E-4,-1.717551053E-2,-1.053237915E-2,2.014893911E-2
3.229839115E0,7.361769676E-3,1.376271248E-2,3.941345215E-2,4.239136844E-2
3.234568855E0,2.399280667E-2,1.598181762E-2,3.433322906E-2,4.483128243E-2
3.239298542E0,-2.277880907E-3,1.619579270E-3,1.030445099E-2,1.067677332E-2
3.244028282E0,7.282674313E-3,-7.846966386E-3,-5.150985718E-2,5.261062263E-2
3.248757969E0,-2.840234339E-2,-1.248479262E-2,-7.719612122E-2,8.319738150E-2
3.253487657E0,4.974842072E-3,-5.213234574E-3,-6.942749023E-2,6.980045321E-2
3.258217397E0,-7.034897804E-3,-9.958436713E-3,-3.085899353E-2,3.318038171E-2
3.262947084E0,2.865231037E-2,9.105859324E-3,1.213169098E-2,3.241989342E-2
3.267676824E0,2.136436105E-2,9.018102661E-3,3.577041626E-2,4.262962324E-2
3.272406511E0,-2.567172050E-3,4.210483283E-3,2.360248566E-2,2.411215194E-2
3.277136251E0,9.398430586E-3,4.247406498E-3,-3.832435608E-2,3.968787256E-2
3.281865938E0,-2.147038281E-2,-2.866895869E-3,-2.613639832E-2,3.394565873E-2
3.286595678E0,-4.656136036E-3,6.614007056E-3,-4.728507996E-2,4.797190301E-2
3.291325365E0,1.198956370E-2,-3.146782145E-2,-4.451751709E-2,5.581919699E-2
3.296055105E0,-1.186385751E-2,9.085338563E-3,3.894901276E-2,4.171714380E-2
3.300784792E0,2.864056826E-2,2.564295568E-2,5.524253845E-2,6.730216475E-2
3.305514532E0,2.372723818E-2,2.541431598E-2,5.952835083E-2,6.893833361E-2
3.310244219E0,1.410636306E-2,2.046929486E-2,2.341938019E-2,3.415331432E-2
3.314973959E0,9.285449982E-3,8.472282439E-3,-1.951217651E-2,2.321043264E-2
3.319703647E0,-2.646178007E-3,-1.532473788E-2,-2.647304535E-2,3.070296369E-2
3.324433334E0,-9.730249643E-3,-3.182717040E-2,-4.524517059E-2,5.616735703E-2
3.329163074E0,2.180933952E-3,1.116083935E-2,-1.400375366E-2,1.803956553E-2
3.333892761E0,2.093642950E-3,1.105672680E-2,9.295177460E-2,9.363048088E-2
3.338622501E0,3.066784143E-2,2.994512953E-2,5.418777466E-2,6.909082575E-2
3.343352188E0,3.757947683E-2,2.259051055E-2,6.560707092E-2,7.891030352E-2
3.348081928E0,1.670539379E-3,-1.237960532E-3,2.944660187E-2,2.951991886E-2
3.352811615E0,6.392925978E-3,-1.537203789E-2,-3.727531433E-2,4.082423434E-2
3.357541355E0,-2.213357389E-2,-1.757454872E-2,-2.034664154E-2,3.482449824E-2
3.362271042E0,8.817404509E-3,6.271492690E-3,-2.017402649E-2,2.289256621E-2
3.367000782E0,2.532252669E-2,-3.347733989E-3,3.697395325E-2,4.493896861E-2
3.371730469E0,1.560273767E-2,1.359630376E-3,5.328559875E-2,5.553961696E-2
3.376460209E0,1.314342022E-2,2.267527767E-2,8.845424652E-2,9.225546835E-2
3.381189897E0,1.782700419E-2,-1.267040148E-3,2.836132050E-2,3.352270827E-2
3.385919636E0,1.060092449E-2,-1.545705460E-2,-3.597640991E-2,4.056602282E-2
3.390649324E0,-1.798933744E-2,-1.053486578E-2,-1.668453217E-2,2.670155936E-2
3.395379011E0,-5.866825581E-3,-2.004175447E-2,-5.216026306E-2,5.618527038E-2
3.400108751E0,-1.024812460E-3,-3.353018314E-3,5.252838135E-3,6.315479464E-3
3.404838438E0,1.315960288E-2,8.419100195E-3,5.981636047E-2,6.182275775E-2
3.409568178E0,1.300942898E-2,3.448039666E-2,4.270076752E-2,5.640477411E-2
3.414297865E0,8.112221956E-3,2.002097107E-2,2.810001373E-2,3.544373287E-2
3.419027605E0,9.669065475E-4,3.280950710E-3,-2.436542511E-2,2.460433878E-2
3.423757292E0,-2.511191368E-2,-1.804015413E-2,-7.639598846E-2,8.241603256E-2
3.428487032E0,-3.212267160E-2,-1.312491857E-2,-5.676269531E-2,6.652918982E-2
3.433216719E0,-3.175321221E-2,1.075077802E-3,-4.916954041E-2,5.854114777E-2
3.437946459E0,-1.948754489E-2,1.278182678E-2,1.771354675E-2,2.927301215E-2
3.442676147E0,1.395767927E-2,2.442103438E-2,5.693435669E-3,2.869876200E-2
3.447405834E0,1.863467693E-2,3.129807487E-2,5.075454712E-2,6.247275189E-2
3.452135574E0,-9.936898947E-3,2.152724750E-2,7.595062256E-3,2.489677321E-2
3.456865261E0,-1.704555750E-2,-1.176046953E-2,-3.520011902E-2,4.084003003E-2
3.461595001E0,-2.174945176E-2,-2.815021761E-2,-4.677677155E-2,5.876682533E-2
3.466324688E0,-2.647101879E-2,-3.496452421E-2,-8.199405670E-2,9.298525756E-2
3.471054428E0,-2.663612366E-3,-1.806445420E-2,-7.708549500E-3,1.982021876E-2
3.475784115E0,2.094563842E-2,1.056320965E-2,1.847457886E-2,2.985985986E-2
3.480513855E0,3.268665075E-2,2.239100076E-2,1.356983185E-2,4.187976109E-2
3.485243542E0,4.209816456E-2,4.118494689E-2,3.956890106E-2,7.095176701E-2
3.489973282E0,1.813629270E-2,1.943251118E-2,-4.386138916E-2,5.128712375E-2
3.494702969E0,-3.451049328E-3,1.696765795E-2,-4.586791992E-2,4.902731112E-2
3.499432709E0,-1.055663824E-2,4.970582202E-3,-3.124046326E-2,3.334840090E-2
3.504162397E0,8.512645960E-3,1.675723307E-2,-2.623271942E-2,3.227112594E-2
3.508892084E0,8.458137512E-3,1.651952416E-2,1.434612274E-2,2.345732308E-2
3.513621824E0,1.069289446E-2,1.877106912E-2,5.458927155E-2,5.870842866E-2
3.518351511E0,5.928933620E-3,1.388140395E-2,7.787418365E-2,7.932360373E-2
3.523081251E0,1.785215735E-2,1.146435924E-2,3.448772430E-2,4.049116178E-2
3.527810938E0,-5.907654762E-3,6.664061919E-3,-6.163597107E-3,1.083051408E-2
3.532540678E0,-2.246104181E-2,-1.949127018E-2,-4.409980774E-2,5.319023458E-2
3.537270365E0,-2.471718192E-2,-2.749387175E-3,-5.797386169E-2,6.308301556E-2
3.542000105E0,-2.209214866E-2,1.895271242E-3,4.235267639E-3,2.257415729E-2
3.546729792E0,1.128950715E-2,2.077459358E-2,6.830310822E-2,7.227967420E-2
3.551459532E0,1.367145777E-2,2.293449827E-2,9.147262573E-2,9.528977504E-2
3.556189219E0,1.354539394E-2,6.197899580E-3,5.747222900E-2,5.937127894E-2
3.560918959E0,-7.832854986E-3,-9.326506406E-4,2.137947083E-2,2.278826951E-2
3.565648647E0,-1.721933484E-2,-3.652049601E-2,-3.103160858E-2,5.092359819E-2
3.570378334E0,-3.836998343E-2,-3.862989321E-2,-3.077507019E-2,6.254301898E-2
3.575108074E0,-3.102535009E-2,-3.362851590E-2,-2.025604248E-3,4.579904478E-2
3.579837761E0,4.759648442E-2,-9.676408023E-3,1.223468781E-2,5.008738152E-2
3.584567501E0,6.827265024E-3,1.413306221E-2,2.163028717E-2,2.672497555E-2
3.589297188E0,-2.410557866E-2,2.118204348E-2,9.267330170E-2,9.807190595E-2
3.594026928E0,-2.606481314E-3,-2.690868452E-3,1.593112946E-2,1.636567761E-2
3.598756615E0,1.405072212E-2,-2.399145998E-2,-2.218914032E-2,3.557205212E-2
3.603486355E0,-3.356158733E-2,-2.137152851E-2,-1.250743866E-2,4.170801358E-2
3.608216042E0,-3.335091472E-2,-3.539400548E-2,-8.837413788E-2,1.008712416E-1
3.612945730E0,-1.186019182E-2,-1.849189773E-2,1.208019257E-2,2.507080940E-2
3.617675469E0,2.152153850E-2,7.680511102E-3,6.895828247E-2,7.264579541E-2
3.622405157E0,3.331470490E-2,1.710121706E-2,2.089881897E-2,4.288451727E-2
3.627134897E0,-1.208385825E-2,1.214157045E-2,5.871105194E-2,6.115901392E-2
3.631864584E0,-4.929810762E-3,-1.640429907E-2,-1.299953461E-2,2.150330119E-2
3.636594324E0,-1.808702946E-4,-5.177929997E-2,-7.699298859E-2,9.278496059E-2
3.641324011E0,-2.868129313E-2,-1.094220765E-2,-1.072139740E-1,1.115221265E-1
3.646053751E0,-2.862535417E-2,1.525349729E-2,-3.746700287E-2,4.955659779E-2
3.650783438E0,7.127910852E-3,1.511373930E-2,-1.538276672E-3,1.678089759E-2
3.655513126E0,3.317216039E-2,1.737699844E-2,-6.274223328E-3,3.796996415E-2
3.660242865E0,4.336953163E-3,3.855840117E-2,9.586811066E-2,1.034226963E-1
3.664972553E0,2.577003837E-2,2.163387835E-2,1.434612274E-2,3.657773650E-2
3.669702292E0,-2.861022949E-3,-2.120904252E-2,-6.412315369E-2,6.760020544E-2
3.674431980E0,-9.914755821E-3,-1.389325596E-2,-5.646610260E-2,5.898936927E-2
3.679161719E0,-3.477036953E-4,-1.613502577E-2,-6.074523926E-2,6.285255800E-2
3.683891407E0,-5.019724369E-3,1.959900744E-2,-6.261444092E-2,6.580187639E-2
3.688621147E0,-2.418160439E-4,2.875031903E-2,4.712009430E-2,5.519911780E-2
3.693350834E0,3.072616458E-2,3.556204587E-2,3.722667694E-2,5.995483110E-2
3.698080522E0,1.884371042E-2,1.151079684E-2,4.878139496E-2,5.354631977E-2
3.702810261E0,6.946146488E-3,1.612281054E-2,1.750755310E-2,2.479331334E-2
3.707539949E0,-2.591967583E-3,1.843616180E-2,-6.810951233E-2,7.060818669E-2
3.712269688E0,-2.368092537E-4,-1.259327307E-2,-7.703685760E-2,7.805974657E-2
3.716999376E0,-7.426440716E-3,4.176549613E-3,-6.689739227E-2,6.743779861E-2
3.721729115E0,-6.681571901E-2,-6.191935390E-4,7.136344910E-2,9.776229117E-2
3.726458803E0,5.718484521E-2,4.206273705E-3,-6.930541992E-2,8.995021118E-2
3.731188542E0,2.580386400E-2,1.843193918E-2,1.734361649E-1,1.763113129E-1
3.735918230E0,2.091398835E-2,1.832187735E-2,2.004337311E-2,3.427568969E-2
3.740647917E0,-2.435281873E-2,3.998631611E-3,2.937126160E-2,3.836300096E-2
3.745377657E0,-5.140364170E-3,-3.403293714E-2,1.488304138E-2,3.749892098E-2
3.750107344E0,4.500925541E-3,-1.476879232E-2,-1.110744476E-1,1.121423581E-1
3.754837084E0,-1.697298884E-2,-1.703174412E-2,2.043151855E-2,3.155328206E-2
3.759566772E0,-1.220938563E-2,-2.656031400E-3,8.911609650E-2,8.998778948E-2
3.764296511E0,3.304597735E-2,2.045558766E-3,1.049909592E-1,1.100877942E-1
3.769026199E0,2.812412381E-2,6.736449897E-3,4.950809479E-2,5.733583127E-2
3.773755938E0,2.315780520E-2,-5.116857588E-3,-4.349708557E-2,4.954253351E-2
3.778485626E0,-3.170961142E-2,-7.404051721E-3,1.976013184E-3,3.262244727E-2
3.783215365E0,-1.000452042E-2,-2.875158377E-2,-8.588600159E-2,9.112161800E-2
3.787945053E0,1.629623771E-2,-4.282571375E-2,2.965927124E-4,4.582245180E-2
3.792674792E0,-2.787739038E-3,-2.597713098E-2,5.041122437E-3,2.660818931E-2
3.797404480E0,-1.227298379E-2,-2.061840147E-3,3.111553192E-2,3.351199252E-2
3.802134167E0,-2.402511239E-2,5.065906793E-3,9.258365631E-2,9.578414719E-2
3.806863907E0,2.392470837E-3,9.817069396E-3,3.965377808E-3,1.085462986E-2
3.811593594E0,-4.704862833E-3,-1.865400001E-2,-2.455902100E-2,3.119700247E-2
3.816323334E0,-3.067949414E-2,-3.266986832E-2,-3.147983551E-2,5.476798062E-2
3.821053022E0,-4.711180925E-2,-4.897310585E-2,-4.546070099E-2,8.175917687E-2
3.825782761E0,-3.260019422E-2,-1.095449552E-3,-1.183986664E-2,3.470093824E-2
3.830512449E0,-1.533627510E-3,-1.098966226E-3,9.627342224E-3,9.810476971E-3
3.835242136E0,2.469658852E-2,1.783453301E-2,1.666736603E-2,3.472453228E-2
3.839971876E0,-1.110503078E-2,1.767326705E-2,2.839851379E-2,3.524403017E-2
3.844701563E0,3.277301788E-3,1.757030562E-2,1.866531372E-2,2.584279944E-2
3.849431303E0,-2.276381850E-2,8.499380201E-4,-3.609752655E-2,4.268425061E-2
3.854160990E0,-2.959454060E-2,-1.098509878E-2,-7.141304016E-2,7.807900828E-2
3.858890730E0,-3.407980502E-2,2.230339311E-2,-3.520488739E-2,5.383547669E-2
3.863620417E0,-5.375027657E-3,3.394714743E-2,5.449295044E-3,3.479934708E-2
3.868350157E0,2.317595482E-2,4.306276888E-2,1.490211487E-2,5.112337990E-2
3.873079844E0,3.967523575E-2,3.556883335E-2,6.225872040E-2,8.194763269E-2
3.877809584E0,4.888597131E-2,2.573622763E-2,4.749393463E-2,7.285509886E-2
3.882539272E0,1.059412956E-2,3.025741316E-2,-4.312229156E-2,5.373340360E-2
3.887268959E0,-1.808156073E-2,8.597573265E-3,-9.521484375E-3,2.217024513E-2
3.891998699E0,-6.157726049E-3,-1.528438739E-2,-1.091547012E-1,1.103914801E-1
3.896728386E0,4.127901793E-2,6.226914003E-3,-9.162330627E-2,1.006854609E-1
3.901458126E0,5.273663998E-2,-2.238357998E-2,2.072715759E-2,6.092448531E-2
3.906187813E0,1.672980189E-2,8.598042652E-3,2.292823792E-2,2.965664686E-2
3.910917553E0,9.484231472E-3,1.326358318E-2,4.410362244E-2,4.702130153E-2
3.915647240E0,2.360948920E-2,6.047209725E-3,5.749702454E-3,2.504068298E-2
3.920376928E0,2.577471733E-2,-2.957032621E-2,-1.106309891E-1,1.173795382E-1
3.925106667E0,-5.344688892E-3,-1.268750243E-2,-5.985164642E-2,6.141463992E-2
3.929836355E0,-7.800340652E-3,-2.683853544E-2,-8.309078217E-2,8.766544576E-2
3.934566094E0,4.066407681E-3,-2.425337583E-2,-3.728675842E-2,4.466614226E-2
3.939295782E0,8.797258139E-3,2.023246139E-3,5.799007416E-2,5.868844841E-2
3.944025522E0,2.779051661E-2,-1.225114614E-2,7.647514343E-3,3.131912947E-2
3.948755209E0,-2.703005075E-2,-1.690999418E-2,7.406044006E-2,8.063200562E-2
3.953484949E0,4.075646400E-3,-1.197724976E-2,-3.102016449E-2,3.350098521E-2
3.958214636E0,-2.431774139E-2,-1.189008541E-2,-7.023811340E-3,2.796534647E-2
3.962944376E0,-1.694774628E-2,-2.127176337E-2,-4.495334625E-2,5.254062581E-2
3.967674063E0,-7.321953773E-3,-2.105019987E-2,-5.644893646E-2,6.068940887E-2
3.972403751E0,9.374558926E-3,2.899815328E-2,2.711486816E-2,4.079204977E-2
3.977133490E0,1.878112555E-2,3.349061310E-2,7.674598694E-2,8.581549017E-2
3.981863178E0,-7.389247417E-3,4.766821861E-3,8.797550201E-2,8.841387065E-2
3.986592917E0,1.411297917E-2,-7.041618228E-3,4.925346375E-2,5.171715633E-2
3.991322605E0,9.349048138E-3,-6.939399987E-3,1.797676086E-2,2.141784080E-2
3.996052344E0,-5.484278500E-2,2.600833774E-3,-3.677940369E-2,6.608494487E-2
4.000782032E0,-5.451180041E-2,-4.583634436E-3,6.087112427E-2,8.184033149E-2
4.005511719E0,-8.989214897E-3,1.437814906E-2,4.137229919E-2,4.471246242E-2
4.010241459E0,2.908858657E-2,7.122475654E-3,1.965999603E-2,3.582444657E-2
4.014971147E0,2.414280176E-2,2.369799092E-2,1.025905609E-1,1.080245011E-1
4.019700886E0,5.493581295E-2,3.541633487E-2,5.187416077E-2,8.344572413E-2
4.024430574E0,-7.148057222E-3,-2.848573029E-3,2.295017242E-2,2.420577420E-2
4.029160313E0,2.339243889E-3,-7.501864806E-3,-9.357261658E-2,9.390199471E-2
4.033890001E0,-2.656877041E-4,-7.424283773E-3,-6.667137146E-2,6.708399475E-2
4.038619740E0,-7.483214140E-3,-2.162148803E-2,-9.222888947E-2,9.502449837E-2
4.043349428E0,6.840616465E-3,-2.148397081E-2,2.724742889E-2,3.536633168E-2
4.048079115E0,-2.668052912E-3,-1.668319665E-2,1.314811707E-1,1.325622337E-1
4.052808855E0,3.318211436E-2,1.908465102E-2,3.541374207E-2,5.214796013E-2
4.057538542E0,-4.978954792E-3,-9.519079700E-3,8.497428894E-2,8.565064302E-2
4.062268282E0,-2.603858709E-3,-2.358335257E-2,-4.393768311E-2,4.993470331E-2
4.066997969E0,-7.256954908E-3,-4.471060634E-2,-1.124238968E-1,1.212057519E-1
4.071727709E0,-1.441642642E-2,-3.728517890E-2,-1.651763916E-2,4.325332727E-2
4.076457397E0,-9.191036224E-5,-2.277070843E-2,-2.587509155E-2,3.446786870E-2
4.081187084E0,4.702150822E-3,-1.283992082E-3,7.167911530E-2,7.184465483E-2
4.085916824E0,3.085216880E-2,1.767722331E-2,-4.050540924E-2,5.389831835E-2
4.090646511E0,-2.874235809E-2,1.749032550E-2,2.393436432E-2,4.129029462E-2
4.095376251E0,1.427674294E-2,7.835337892E-3,-1.163415909E-1,1.174758855E-1
4.100105938E0,2.303421497E-3,-2.070390061E-2,-1.319923401E-1,1.336261018E-1
4.104835678E0,-1.434692740E-2,-1.104665361E-2,-8.340930939E-2,8.535206954E-2
4.109565365E0,2.368971705E-2,8.085960522E-3,-1.159496307E-1,1.186208343E-1
4.114295105E0,3.532248735E-2,-1.813816279E-2,6.307792664E-2,7.453519901E-2
4.119024792E0,3.510165215E-2,-8.590018377E-3,3.643512726E-2,5.131698449E-2
4.123754532E0,8.795469999E-3,3.657696396E-2,-2.559852600E-2,4.550295725E-2
4.128484219E0,-7.937401533E-3,3.159662709E-2,6.008529663E-2,6.834904577E-2
4.133213907E0,5.144199729E-2,1.235519350E-2,-4.487705231E-2,6.937492137E-2
4.137943647E0,2.265402675E-2,-1.387758367E-2,-4.213333130E-2,4.980973662E-2
4.142673334E0,-2.028147876E-2,-1.932311803E-3,5.793285370E-2,6.141081132E-2
4.147403074E0,-2.736091614E-2,3.837548941E-2,3.133773804E-2,5.659816026E-2
4.152132761E0,4.407960176E-2,4.505082965E-2,2.145767212E-4,6.302883933E-2
4.156862501E0,3.428912163E-2,4.463351518E-2,1.445484161E-2,5.811055829E-2
4.161592188E0,-8.771896362E-3,4.424969852E-2,3.570270538E-2,5.752968935E-2
4.166321876E0,4.580911994E-2,-8.277533576E-3,-1.444911957E-2,4.874187202E-2
4.171051615E0,3.360161185E-2,-6.274195760E-2,-2.620124817E-2,7.584277796E-2
4.175781303E0,-2.590173483E-2,-4.566966742E-2,-3.548336029E-2,6.336945042E-2
4.180511042E0,-9.107381105E-3,-2.567069605E-3,-1.111593246E-1,1.115613270E-1
4.185240730E0,-2.108509839E-2,4.729877412E-2,1.797676086E-2,5.481714457E-2
4.189970469E0,4.552614689E-2,2.789957076E-2,1.208305359E-3,5.340857704E-2
4.194700157E0,7.233709097E-3,3.942193463E-3,3.680801392E-2,3.771866017E-2
4.199429897E0,-3.797610104E-2,-3.167256713E-3,6.736660004E-2,7.739815609E-2
4.204159584E0,-7.085290551E-2,-3.630539030E-2,-6.377506256E-2,1.020072262E-1
4.208889272E0,-8.443388343E-2,-2.174290270E-2,-1.178512573E-1,1.465972488E-1
4.213619011E0,-9.100709856E-2,-1.204929315E-2,-1.952552795E-2,9.385480113E-2
4.218348699E0,-7.132452726E-2,-1.673828810E-2,2.812194824E-2,7.847421520E-2
4.223078438E0,-4.937504232E-2,-7.141787559E-3,9.436416626E-2,1.067403195E-1
4.227808126E0,-2.757988870E-2,-4.720000550E-3,1.481828690E-1,1.508014964E-1
4.232537865E0,-8.255094290E-3,-4.267891124E-2,1.683130264E-1,1.738358735E-1
4.237267553E0,-1.506456733E-2,-4.233513027E-2,5.056953430E-2,6.764970246E-2
4.241997292E0,-6.463740766E-2,-5.861325562E-2,-2.820205688E-2,9.169985941E-2
4.246726980E0,-4.288610816E-2,-4.151613265E-2,-5.170440674E-2,7.896931822E-2
4.251456667E0,6.655600667E-2,-2.931130305E-2,-8.213233948E-2,1.097022137E-1
4.256186407E0,1.088095009E-1,-2.679172717E-2,7.999134064E-2,1.376804950E-1
4.260916094E0,3.686559200E-2,-2.440629900E-2,2.146472931E-1,2.191533703E-1
4.265645834E0,5.096217990E-2,5.169944093E-2,-3.643035889E-2,8.122282328E-2
4.270375522E0,8.836939931E-2,4.187330976E-2,-7.411003113E-2,1.226980909E-1
4.275105261E0,1.232332885E-1,-2.244941704E-2,-1.067304611E-1,1.645655221E-1
4.279834949E0,6.312558055E-2,-5.572833121E-3,-9.872627258E-2,1.173148426E-1
4.284564688E0,-4.190340638E-2,5.856218189E-2,8.933067322E-3,7.256186537E-2
4.289294376E0,6.736004353E-2,5.345328152E-2,-1.596984863E-1,1.813787069E-1
4.294024063E0,5.005386472E-2,2.456080727E-2,1.360292435E-1,1.470121686E-1
4.298753803E0,2.622509003E-2,7.637470961E-3,1.230163574E-1,1.260123427E-1
4.303483490E0,-4.612982273E-3,3.616331518E-2,4.363727570E-2,5.686190992E-2
4.308213230E0,-9.500347078E-2,3.833658621E-2,7.176971436E-2,1.250849519E-1
4.312942917E0,-9.905765951E-2,1.200353168E-2,-9.976482391E-2,1.411011154E-1
4.317672657E0,-4.595592618E-2,-3.321872652E-2,-3.969192505E-3,5.684351706E-2
4.322402344E0,-5.027635396E-2,-6.158671528E-2,1.290149689E-1,1.515437147E-1
4.327132032E0,7.313489914E-5,-6.594657898E-3,-9.048366547E-2,9.072369359E-2
4.331861772E0,-1.661568880E-2,3.621233255E-2,-7.073497772E-2,8.118405765E-2
4.336591459E0,1.185810566E-2,4.058925807E-2,1.007976532E-1,1.093081398E-1
4.341321199E0,6.640967727E-2,-9.647991508E-3,2.398490906E-2,7.126433075E-2
4.346050886E0,1.149514318E-2,-4.290375113E-2,-4.032421112E-2,5.999093415E-2
4.350780626E0,6.604966521E-2,-2.342328243E-2,-3.438806534E-1,3.509488741E-1
4.355510313E0,-8.310675621E-3,2.438457869E-2,-4.898929596E-2,5.535003275E-2
4.360240001E0,3.442424536E-2,3.143352270E-2,8.399963379E-3,4.736722921E-2
4.364969740E0,6.510323286E-2,3.819519281E-2,1.222867966E-1,1.437058256E-1
4.369699428E0,1.312527061E-1,3.543238714E-2,-7.341861725E-2,1.545089650E-1
4.374429167E0,1.064909995E-1,2.817129903E-2,-6.331253052E-2,1.270528692E-1
4.379158855E0,-1.769325137E-2,4.208259284E-2,2.149868011E-1,2.197801639E-1
4.383888594E0,6.336277723E-2,3.699709848E-2,-8.120250702E-2,1.094416465E-1
4.388618282E0,-1.165211201E-3,-6.309658289E-2,-2.182960510E-3,6.314508537E-2
4.393348022E0,1.078882813E-2,-4.118917882E-2,-1.161260605E-1,1.236859296E-1
4.398077709E0,-2.735632658E-2,1.903768629E-3,1.080131531E-1,1.114398231E-1
4.402807397E0,-5.334146321E-2,-6.412547082E-4,2.495651245E-1,2.552028101E-1
4.407537136E0,9.046852589E-3,4.098180681E-3,-8.015251160E-2,8.076549846E-2
4.412266824E0,-5.514249206E-2,4.443959892E-2,1.294393539E-1,1.475470052E-1
4.416996563E0,-3.804741800E-2,-9.960122406E-4,-1.883697510E-2,4.246680689E-2
4.421726251E0,-2.830284834E-2,-1.284185052E-2,-1.112709045E-1,1.155299898E-1
4.426455938E0,-8.525791764E-2,-1.007333398E-1,2.973747253E-2,1.352791024E-1
4.431185678E0,-7.020074129E-2,-2.158736810E-2,-1.295795441E-1,1.489463554E-1
4.435915365E0,-1.289531738E-1,3.553250432E-2,1.611461639E-1,2.094267558E-1
4.440645105E0,-1.114427000E-1,1.137065887E-2,1.764268875E-1,2.089861572E-1
4.445374792E0,1.078325510E-2,-1.239200868E-2,-1.811723709E-1,1.819155531E-1
4.450104532E0,-7.003971934E-2,-5.207419395E-3,4.825687408E-2,8.521388032E-2
4.454834219E0,-5.768294632E-2,-4.542173818E-2,-1.943063736E-1,2.077147646E-1
4.459563907E0,-9.299746156E-2,-9.488373250E-2,-9.059524536E-2,1.608071797E-1
4.464293647E0,-9.224921465E-3,-9.885244817E-2,-5.897331238E-2,1.154762194E-1
4.469023334E0,-3.044208884E-2,-6.251374632E-2,8.159160614E-2,1.072001840E-1
4.473753074E0,-2.304953337E-2,-3.594675288E-2,8.565902710E-2,9.571268962E-2
4.478482761E0,-1.445204020E-3,9.420501068E-3,7.307434082E-2,7.369324081E-2
4.483212501E0,2.475583553E-2,9.329358116E-3,6.534099579E-2,7.049350358E-2
4.487942188E0,1.987463236E-2,-1.209987886E-2,-8.952522278E-2,9.249958699E-2
4.492671876E0,2.681937814E-2,-4.044374824E-2,-1.457586288E-1,1.536247171E-1
4.497401615E0,1.222506166E-2,-1.632093266E-2,-3.295612335E-2,3.875475508E-2
4.502131303E0,3.590953350E-2,5.112824962E-3,-1.819610596E-3,3.631730384E-2
4.506861042E0,3.090697527E-2,2.164738439E-2,5.992221832E-2,7.081329409E-2
4.511590730E0,9.476780891E-2,5.237521604E-2,-2.305984497E-3,1.083024396E-1
4.516320469E0,1.391319335E-1,6.619794667E-2,1.670646667E-2,1.549805442E-1
4.521050157E0,1.119874418E-1,1.340010203E-2,2.843284607E-2,1.163149887E-1
4.525779844E0,8.029204607E-2,-2.705548331E-2,-1.213769913E-1,1.480242745E-1
4.530509584E0,4.391333461E-2,-1.011051610E-2,-7.288074493E-2,8.568667618E-2
4.535239272E0,-2.299766243E-2,3.501218930E-2,7.492637634E-2,8.584117746E-2
4.539969011E0,3.173053265E-2,1.525104046E-3,-1.668930054E-3,3.181097251E-2
4.544698699E0,4.326805472E-2,3.729991615E-3,2.713737488E-1,2.748267617E-1
4.549428438E0,1.050505936E-1,3.680887446E-2,-1.342296600E-2,1.121191173E-1
4.554158126E0,-2.392683923E-2,7.221483439E-2,-5.604743958E-2,9.449228236E-2
4.558887813E0,-5.734775960E-2,4.797281325E-2,1.802825928E-2,7.691017147E-2
4.563617553E0,4.874318838E-3,4.911936820E-3,-1.079540253E-1,1.081755873E-1
4.568347240E0,-3.531086445E-2,-1.888467371E-2,-1.402978897E-1,1.459006028E-1
4.573076980E0,-8.497115970E-2,1.220938936E-2,-1.177577972E-1,1.457259962E-1
4.577806667E0,-7.266059518E-2,2.405114472E-2,2.805328369E-2,8.151690855E-2
4.582536407E0,-5.075697601E-2,2.621453255E-2,8.480072021E-2,1.022479070E-1
4.587266094E0,-1.210364699E-2,2.120898105E-2,5.559730530E-2,6.072379685E-2
4.591995782E0,-5.000127852E-2,-2.168582752E-2,7.650184631E-2,9.393048205E-2
4.596725522E0,-4.012861848E-2,-5.229549110E-2,-7.228851318E-3,6.631274916E-2
4.601455209E0,-8.723244071E-2,-2.042170614E-3,8.542060852E-2,1.221079421E-1
4.606184949E0,-3.897786140E-2,2.399469726E-2,6.334209442E-2,7.814883302E-2
4.610914636E0,2.074539661E-2,1.657574810E-2,-1.553440094E-2,3.076433842E-2
4.615644324E0,7.279163599E-2,4.469571635E-3,1.308536530E-2,7.409336087E-2
4.620374063E0,7.222995162E-2,6.708396599E-3,9.132289886E-2,1.166277855E-1
4.625103751E0,5.988764763E-2,4.222358763E-2,4.545021057E-2,8.622692927E-2
4.629833490E0,3.798070550E-2,3.473663703E-2,2.845191956E-2,5.881054045E-2
4.634563178E0,7.089033723E-2,-6.528046727E-2,-7.149887085E-2,1.199961160E-1
4.639292917E0,6.573891640E-2,-5.056426674E-2,-7.090759277E-2,1.091157042E-1
4.644022605E0,1.303347945E-2,-1.691979170E-2,-9.168624878E-2,9.414095364E-2
4.648752292E0,1.749032736E-2,-3.335429728E-2,7.052516937E-2,7.995136155E-2
4.653482032E0,6.953531504E-2,-3.068636917E-2,1.197957993E-1,1.418726429E-1
4.658211719E0,9.537285566E-2,-2.089129575E-2,-4.265308380E-2,1.065444198E-1
4.662941459E0,-3.346690536E-2,-6.429558620E-3,3.841876984E-2,5.135537804E-2
4.667671147E0,-1.162950248E-1,8.454080671E-4,-1.637048721E-1,2.008096926E-1
4.672400886E0,-6.808264554E-2,1.521143876E-2,-1.243486404E-1,1.425805698E-1
4.677130574E0,-6.272217631E-2,-2.771880664E-2,-2.834701538E-2,7.420213558E-2
4.681860261E0,-2.405422926E-2,-2.275293507E-2,1.461791992E-2,3.619372297E-2
4.686590001E0,-9.271611273E-2,4.375780746E-2,2.305450439E-1,2.523133777E-1
4.691319688E0,-1.369407773E-2,4.578314349E-2,7.668113708E-2,9.035275744E-2
4.696049428E0,-9.213842452E-2,3.114561364E-2,2.090005875E-1,2.305228494E-1
4.700779115E0,-2.951243520E-2,1.419818029E-2,-8.001613617E-2,8.645897410E-2
4.705508855E0,-2.221336961E-2,-6.905338913E-2,2.511501312E-2,7.676306549E-2
4.710238542E0,1.114058495E-2,-7.097638398E-2,3.203010559E-2,7.866185467E-2
4.714968230E0,1.596063375E-3,7.911679149E-2,-6.320381165E-2,1.012755445E-1
4.719697969E0,3.229206800E-2,5.693662167E-2,1.557502747E-1,1.689458629E-1
4.724427657E0,1.106141508E-1,3.024841845E-2,-1.162071228E-1,1.632622202E-1
4.729157397E0,8.854106069E-2,5.850043148E-2,-8.437919617E-2,1.355790126E-1
4.733887084E0,-8.094431460E-2,-6.357286125E-3,2.890701294E-1,3.002564518E-1
4.738616772E0,1.598491669E-1,-3.949958459E-2,-5.727901459E-1,5.959870171E-1
4.743346511E0,2.074757218E-2,-1.770260558E-2,-1.335458755E-1,1.363024023E-1
4.748076199E0,-8.240491152E-3,-6.988285482E-2,-2.558708191E-2,7.487468099E-2
4.752805938E0,1.723085046E-1,-5.724464729E-2,-3.791236877E-1,4.203592999E-1
4.757535626E0,-9.546309710E-3,1.195696555E-2,2.531852722E-1,2.536471627E-1
4.762265313E0,3.574404120E-2,4.522354528E-2,-1.738996506E-1,1.832045141E-1
4.766995053E0,-5.023449659E-2,3.556593508E-2,8.396148682E-2,1.041055794E-1
4.771724740E0,-3.332281113E-2,1.880943775E-2,2.391052246E-2,4.512114553E-2
4.776454480E0,-5.422505736E-2,-2.635644563E-2,-4.277038574E-2,7.392107256E-2
4.781184167E0,-1.868230104E-1,-9.501179680E-3,1.688880920E-1,2.520243982E-1
4.785913907E0,-5.006556213E-2,-1.175262220E-2,1.176271439E-1,1.283776835E-1
4.790643594E0,-9.937529266E-2,1.894188114E-2,2.709627151E-1,2.892318044E-1
4.795373282E0,1.562771201E-2,5.927430466E-2,-3.105936050E-1,3.165849903E-1
4.800103022E0,-7.993631065E-2,4.455359280E-2,3.306531906E-1,3.430836179E-1
4.804832709E0,1.914559901E-1,3.809913993E-3,-4.959392548E-2,1.978117009E-1
4.809562449E0,1.452237964E-1,-3.899762034E-2,-7.293415070E-2,1.671231754E-1
4.814292136E0,4.442980886E-2,-7.907565683E-3,-5.852699280E-3,4.550595125E-2
4.819021824E0,-8.297652006E-3,7.767196000E-2,-8.889675140E-2,1.183402586E-1
4.823751563E0,4.136019945E-2,6.980495155E-2,3.530693054E-2,8.848715559E-2
4.828481251E0,2.001000643E-1,-1.854899712E-2,-1.335525513E-1,2.412890071E-1
4.833210990E0,7.768088579E-2,-3.268276528E-2,1.263341904E-1,1.518644488E-1
4.837940678E0,-8.134305477E-3,2.944482490E-2,-5.278778076E-2,6.098946169E-2
4.842670365E0,-1.365388036E-1,2.441002801E-2,2.491760254E-1,2.851795680E-1
4.847400105E0,4.736799002E-2,-6.359332800E-2,-2.396001816E-1,2.523808330E-1
4.852129792E0,8.514726162E-2,-5.810305104E-2,-2.993373871E-1,3.165894692E-1
4.856859532E0,-1.864265501E-1,-5.065061897E-2,3.964157104E-1,4.409827199E-1
4.861589219E0,-1.386088133E-2,-2.884614468E-2,-1.339511871E-1,1.377212570E-1
4.866318907E0,-7.082247734E-2,-2.861763351E-2,2.589035034E-1,2.699366895E-1
4.871048647E0,-3.222966194E-2,-4.738344252E-2,1.332902908E-1,1.450870200E-1
4.875778334E0,-2.465137839E-2,-9.439796954E-2,-9.337043762E-2,1.350433476E-1
4.880508074E0,-9.104819596E-2,-9.367939085E-2,1.258335114E-1,1.813826751E-1
4.885237761E0,-4.519280791E-2,-4.554158077E-2,-1.197519302E-1,1.358563589E-1
4.889967501E0,-2.111507952E-2,4.509833455E-2,-1.686096191E-1,1.758093002E-1
4.894697188E0,-5.436034501E-2,1.619392075E-2,-1.008987427E-3,5.673013515E-2
4.899426876E0,1.026797295E-2,-7.694387808E-3,-7.460212708E-2,7.569750482E-2
4.904156615E0,3.402554989E-2,-4.333902150E-2,1.206970215E-1,1.326792366E-1
4.908886303E0,5.521115661E-2,-3.581034020E-2,-7.024383545E-2,9.625408406E-2
4.913616042E0,4.967302084E-3,-1.164070703E-2,6.311416626E-3,1.414263519E-2
4.918345730E0,-1.402229071E-2,3.117755055E-2,3.949737549E-2,5.223702677E-2
4.923075469E0,6.211227179E-2,3.104671091E-2,-2.172422409E-1,2.280702168E-1
4.927805157E0,8.987310529E-2,9.550370276E-3,6.217956543E-4,9.038125500E-2
4.932534844E0,6.302508712E-2,1.657903939E-2,5.047321320E-2,8.242919024E-2
4.937264584E0,5.562195182E-2,6.393656880E-2,2.630424500E-2,8.873330636E-2
4.941994272E0,-2.085478604E-2,8.950597048E-2,2.516298294E-1,2.678876852E-1
4.946723959E0,4.589709640E-2,5.793970823E-2,7.621669769E-2,1.061722104E-1
4.951453699E0,3.388834000E-2,1.708215848E-2,-5.975055695E-2,7.078381723E-2
4.956183386E0,-4.335373640E-3,3.834990412E-2,-2.126884460E-2,4.406670355E-2
4.960913126E0,-6.380736828E-2,7.362989336E-2,7.625198364E-2,1.237218916E-1
4.965642813E0,7.857084274E-4,6.101975590E-2,1.041088104E-1,1.206758980E-1
4.970372553E0,-8.587062359E-3,3.429754078E-2,5.338191986E-2,6.402880845E-2
4.975102240E0,1.054495573E-3,1.271719486E-2,-8.714008331E-2,8.806947897E-2
4.979831928E0,-1.575624943E-2,6.993431598E-4,1.652517319E-1,1.660026607E-1
4.984561667E0,4.852196574E-2,-3.018306009E-2,-1.091527939E-1,1.232060497E-1
4.989291355E0,-2.063070238E-2,-2.044836804E-2,-8.925437927E-2,9.386216413E-2
4.994021094E0,-7.049888372E-2,1.020522788E-3,-1.965522766E-2,7.319468592E-2
4.998750782E0,-2.973400056E-2,1.063991338E-2,-1.381940842E-1,1.417565640E-1
5.003480469E0,-5.095137656E-2,-5.836556107E-2,3.864765167E-2,8.658072806E-2
5.008210209E0,3.021052480E-2,-1.507019065E-2,-1.207437515E-1,1.253747981E-1
5.012939897E0,-5.552269518E-2,1.831006818E-2,1.271734238E-1,1.399682392E-1
5.017669636E0,-1.095921099E-1,2.506868728E-2,1.902151108E-1,2.209539726E-1
5.022399324E0,1.027297974E-2,-3.444015980E-3,-4.856357574E-1,4.857566101E-1
5.027129011E0,-8.999462426E-2,-6.976020336E-2,3.836059570E-2,1.201542911E-1
5.031858751E0,6.260323524E-2,-8.575282991E-2,-7.591438293E-2,1.305209042E-1
5.036588438E0,1.263946295E-2,-6.631392241E-2,1.455039978E-1,1.604017011E-1
5.041318178E0,4.358524084E-2,-4.683694988E-2,-6.701374054E-2,9.265103623E-2
5.046047865E0,2.175721526E-2,1.222984865E-3,-6.170463562E-2,6.543954588E-2
5.050777553E0,-4.253812134E-2,-3.548145294E-3,2.427005768E-1,2.464257516E-1
5.055507292E0,2.456524968E-2,-3.679776937E-2,1.750087738E-2,4.757949171E-2
5.060236980E0,3.404438496E-2,-3.644680977E-2,-1.678333282E-1,1.750868817E-1
5.064966719E0,-2.569046617E-2,-1.475992240E-2,-7.384014130E-2,7.956269118E-2
5.069696407E0,2.431178093E-2,1.861697435E-2,-8.034420013E-2,8.598165456E-2
5.074426094E0,4.309037328E-2,3.266484290E-2,9.838581085E-2,1.122654889E-1
5.079155834E0,9.509301186E-2,2.994736284E-2,9.043979645E-2,1.346063974E-1
5.083885522E0,5.418458581E-2,4.635883868E-2,-5.378723145E-4,7.131199457E-2
5.088615261E0,-1.990599930E-2,6.970056891E-2,1.324186325E-1,1.509606318E-1
5.093344949E0,7.981979847E-2,1.455709524E-2,5.489349365E-3,8.132184335E-2
5.098074636E0,1.433586478E-1,-4.487515241E-2,-9.427261353E-2,1.773493921E-1
5.102804376E0,-9.748339653E-5,-1.605409384E-2,-4.838275909E-2,5.097680658E-2
5.107534063E0,-1.686987281E-2,1.123256534E-1,2.799606323E-2,1.169847194E-1
5.112263803E0,-6.216345727E-2,7.568008453E-2,3.886423111E-1,4.007924857E-1
5.116993490E0,2.649933100E-2,1.093477011E-2,-6.094360352E-2,6.734913919E-2
5.121723178E0,3.830826283E-2,4.180730134E-2,1.484842300E-1,1.589431975E-1
5.126452917E0,-1.378241032E-1,4.359405860E-2,3.965368271E-1,4.220632424E-1
5.131182605E0,-1.529243588E-2,2.207721211E-2,-6.276607513E-1,6.282350521E-1
5.135912344E0,-1.271893680E-1,-4.216290265E-2,2.809715271E-2,1.369098086E-1
5.140642032E0,-1.718729734E-2,-6.090051308E-2,-4.335308075E-2,7.670570575E-2
5.145371719E0,-3.321966529E-2,1.266762614E-3,-1.403436661E-1,1.442272355E-1
5.150101459E0,-1.162495911E-1,8.253628388E-3,2.074584961E-1,2.379519225E-1
5.154831147E0,4.592114687E-2,-1.553925872E-2,-4.117584229E-2,6.360558371E-2
5.159560886E0,3.394031525E-2,-6.055817008E-2,-6.220817566E-2,9.321531034E-2
5.164290574E0,-7.053235173E-2,-7.428180426E-2,-1.044311523E-1,1.462821406E-1
5.169020261E0,-1.579996943E-1,-6.652221829E-2,6.263542175E-2,1.825165883E-1
5.173750001E0,-1.673434675E-2,-2.556227334E-2,-1.634283066E-1,1.662596751E-1
5.178479688E0,-7.110476494E-3,-1.120091043E-2,5.635547638E-2,5.789610512E-2
5.183209428E0,7.608884573E-2,5.498826504E-3,-7.469367981E-2,1.067656094E-1
5.187939115E0,9.440758824E-2,1.745194569E-2,-1.073083878E-1,1.439876842E-1
5.192668803E0,1.520502567E-2,3.863273561E-2,2.140979767E-1,2.180862781E-1
5.197398542E0,7.238769531E-2,4.307339340E-2,-4.172801971E-2,9.400278337E-2
5.202128230E0,-6.338307261E-2,-2.379294485E-3,5.595493317E-2,8.458149610E-2
5.206857969E0,-2.742557228E-2,-9.974065423E-2,6.261634827E-2,1.209180185E-1
5.211587657E0,1.462746859E-1,-6.800200790E-2,-2.584209442E-1,3.046341104E-1
5.216317344E0,1.472204924E-2,-2.468713187E-2,2.387619019E-2,3.736663848E-2
5.221047084E0,-8.515539765E-2,2.762330882E-2,2.872085571E-1,3.008375712E-1
5.225776772E0,6.757315993E-2,4.888943583E-2,-1.615266800E-1,1.817888259E-1
5.230506459E0,7.168960571E-2,-1.320380904E-2,1.532087326E-1,1.696663075E-1
5.235236199E0,5.706334114E-2,1.543800719E-2,-3.088283539E-2,6.669562572E-2
5.239965886E0,-4.056462646E-2,2.244455740E-2,-1.208477020E-1,1.294349804E-1
5.244695626E0,-6.426495314E-2,-3.710805625E-2,-4.386043549E-2,8.620168120E-2
5.249425313E0,5.716931820E-2,-3.435266018E-2,-1.052169800E-1,1.245754754E-1
5.254155001E0,2.189248800E-3,3.937795758E-2,2.660245895E-1,2.689321450E-1
5.258884740E0,3.559648991E-2,6.746920943E-2,1.071081161E-1,1.314965888E-1
5.263614428E0,-3.814399242E-4,6.217526644E-2,1.085929871E-1,1.251333133E-1
5.268344167E0,1.851743460E-2,1.178739034E-2,2.222061157E-2,3.123449269E-2
5.273073855E0,5.642297864E-2,-1.675706170E-2,-2.035102844E-1,2.118508615E-1
5.277803542E0,-1.305204630E-2,-1.428362913E-2,-6.173610687E-2,6.469717819E-2
5.282533282E0,-5.946785212E-3,1.903234422E-2,-6.834030151E-2,7.118982506E-2
5.287262969E0,-1.551988721E-2,7.341031730E-2,1.530294418E-1,1.704345964E-1
5.291992709E0,-1.300022006E-2,3.463097662E-2,1.897411346E-1,1.933132392E-1
5.296722397E0,2.531030774E-2,1.768221147E-2,-6.113052368E-2,6.848513128E-2
5.301452084E0,-1.078081578E-1,3.405734152E-2,1.103162766E-1,1.579625977E-1
5.306181824E0,-3.092065454E-2,-6.541898474E-3,-1.256446838E-1,1.295587507E-1
5.310911511E0,-5.195683241E-2,-6.579753011E-2,-1.697092056E-1,1.892882508E-1
5.315641199E0,-2.072902024E-2,-9.849917144E-2,-1.208095551E-1,1.572473454E-1
5.320370938E0,3.087520599E-3,-5.732893944E-2,1.552677155E-2,5.947453838E-2
5.325100626E0,1.022902131E-2,-2.370966598E-2,1.103630066E-1,1.133436119E-1
5.329830365E0,5.538287759E-2,2.398747578E-2,-3.300952911E-2,6.879165020E-2
5.334560053E0,-2.129127085E-2,-6.889637560E-3,-7.546424866E-2,7.871237606E-2
5.339289740E0,-4.028993845E-2,-9.076634422E-3,1.776123047E-2,4.495693206E-2
5.344019480E0,-1.253786683E-1,-6.593546271E-2,5.084991455E-2,1.505091676E-1
5.348749167E0,-4.362502694E-2,-1.199740469E-1,5.042648315E-2,1.372579510E-1
5.353478907E0,5.166405439E-2,-1.235658452E-1,-1.422986984E-1,1.954139509E-1
5.358208594E0,-3.656497598E-2,2.233044058E-2,5.594062805E-2,7.046275549E-2
5.362938282E0,-5.989995599E-2,7.670940459E-2,1.748561859E-2,9.888419660E-2
5.367668022E0,8.292201161E-2,7.631458342E-2,-1.678409576E-1,2.021646921E-1
5.372397709E0,1.076665521E-2,1.631304808E-2,2.751550674E-1,2.758484141E-1
5.377127397E0,1.773397028E-1,-3.120763227E-2,-2.494630814E-1,3.076607149E-1
5.381857136E0,-6.376811862E-2,-1.911948249E-2,2.511825562E-1,2.598549674E-1
5.386586824E0,-1.083005369E-1,6.177595258E-2,-9.753704071E-2,1.582995544E-1
5.391316563E0,-9.096197784E-2,3.762170672E-2,-2.312088013E-2,1.011140412E-1
5.396046251E0,1.633590460E-2,-3.404279798E-2,2.691001892E-1,2.717364269E-1
5.400775938E0,1.709917784E-1,1.854266413E-2,-1.201410294E-1,2.097996320E-1
5.405505678E0,-5.813549459E-2,7.295165956E-2,2.346029282E-1,2.524682441E-1
5.410235365E0,-2.702714503E-2,8.669067919E-2,7.109642029E-3,9.108395818E-2
5.414965053E0,3.005155921E-2,2.428549714E-2,-5.942153931E-2,7.087877620E-2
5.419694792E0,9.637928009E-2,-5.673754588E-2,-1.277799606E-1,1.698111689E-1
5.424424480E0,-1.775890589E-3,-3.734192625E-2,2.997970581E-2,4.792030889E-2
5.429154219E0,-1.616042852E-2,5.719754845E-3,5.991935730E-3,1.815980009E-2
5.433883907E0,-1.855455339E-2,1.038078591E-2,1.673889160E-1,1.687337588E-1
5.438613594E0,1.717156172E-2,-3.256544471E-2,7.577800751E-2,8.424771298E-2
5.443343334E0,1.217069328E-1,-6.794819236E-2,-2.334995270E-1,2.719403674E-1
5.448073022E0,6.127008796E-2,-2.938052453E-2,-1.175928116E-1,1.358135054E-1
5.452802709E0,-1.064795256E-2,3.269420564E-2,-9.524059296E-2,1.012573974E-1
5.457532449E0,-3.677247465E-2,5.386341736E-2,-2.559280396E-2,7.006050410E-2
5.462262136E0,3.471779823E-2,1.295672916E-2,9.807682037E-2,1.048440034E-1
5.466991876E0,6.307709217E-2,-2.048740722E-2,2.603149414E-2,7.124669886E-2
5.471721563E0,-4.401244223E-2,1.056307182E-2,-1.332616806E-1,1.407385842E-1
5.476451251E0,-8.650630713E-2,4.389981925E-2,-4.667854309E-2,1.076541764E-1
5.481180990E0,-7.175189257E-2,2.464206517E-2,1.816349030E-1,1.968420774E-1
5.485910678E0,2.577006817E-4,-1.690791920E-3,1.155090332E-2,1.167683838E-2
5.490640417E0,-4.305511713E-3,-2.545854263E-2,-7.876682281E-2,8.289081493E-2
5.495370105E0,7.446616888E-3,2.233784273E-2,-9.709930420E-2,9.991349357E-2
5.500099792E0,-9.331822395E-3,4.579433426E-2,1.648683548E-1,1.713644606E-1
5.504829532E0,7.408538461E-2,6.196213141E-2,2.341365814E-2,9.937881731E-2
5.509559219E0,1.187053323E-2,4.710280150E-2,1.253042221E-1,1.343902212E-1
5.514288907E0,9.248057008E-2,8.711263537E-3,-3.955650330E-2,1.009616705E-1
5.519018647E0,7.762411237E-2,-1.506080106E-2,-3.210830688E-2,8.534209934E-2
5.523748334E0,-1.070716977E-2,-1.740908623E-2,1.699571609E-1,1.711816472E-1
5.528478074E0,8.505821228E-3,-1.730669290E-2,-1.401014328E-1,1.414223536E-1
5.533207761E0,1.300045848E-2,3.988834471E-2,-1.175622940E-1,1.248238156E-1
5.537937449E0,5.535849929E-2,-8.180011064E-4,5.911159515E-2,8.099020466E-2
5.542667188E0,1.287686229E-1,3.838239238E-3,-5.534648895E-2,1.402117119E-1
5.547396876E0,5.199569464E-2,1.080134697E-2,2.345466614E-2,5.805465288E-2
5.552126563E0,1.579493284E-3,-1.527609117E-2,-1.856632233E-1,1.862973060E-1
5.556856303E0,-3.193990886E-2,-5.772679672E-2,-8.676910400E-2,1.090019185E-1
5.561585990E0,-5.062180758E-2,-5.728919804E-2,1.347494125E-1,1.549258655E-1
5.566315730E0,-4.998385906E-2,-3.322845697E-2,4.102897644E-2,7.270415000E-2
5.571045417E0,-1.089330763E-1,4.054895043E-2,4.781055450E-2,1.256840547E-1
5.575775105E0,-6.075362861E-2,9.019713104E-2,-8.315944672E-2,1.369014953E-1
5.580504844E0,-8.894851804E-2,6.337416172E-2,2.285509109E-1,2.533054325E-1
5.585234532E0,-8.321458101E-2,1.769533381E-2,5.570125580E-2,1.016878618E-1
5.589964219E0,-1.037581414E-1,-6.233973429E-3,8.134841919E-2,1.319931045E-1
5.594693959E0,-1.078249514E-1,-5.141590536E-2,4.031658173E-2,1.260763349E-1
5.599423647E0,-1.431819797E-2,-6.756214052E-2,-1.855649948E-1,1.980000528E-1
5.604153386E0,-7.839848101E-2,-4.112325236E-2,3.240537643E-1,3.359289894E-1
5.608883074E0,9.103533626E-2,-4.093641788E-2,-1.059989929E-1,1.455987955E-1
5.613612761E0,6.895419955E-2,-2.404510975E-2,-6.475639343E-2,9.760245606E-2
5.618342501E0,6.118813157E-2,-5.472130328E-2,-6.183910370E-2,1.027739423E-1
5.623072188E0,6.203293800E-3,-3.520006314E-2,-2.808952332E-2,4.545928529E-2
5.627801876E0,3.239762783E-2,-6.575480849E-2,-6.109714508E-2,9.542621372E-2
5.632531615E0,3.692093492E-2,-6.510632485E-2,-2.410259247E-1,2.523796453E-1
5.637261303E0,2.444598079E-2,-3.829222172E-2,-2.532548904E-1,2.572973761E-1
5.641991042E0,1.213157177E-2,2.142564766E-2,-2.084445953E-2,3.226026820E-2
5.646720730E0,1.093869507E-1,2.603969537E-2,3.155899048E-2,1.167884438E-1
5.651450417E0,8.961272240E-2,3.055680729E-2,1.120147705E-1,1.466678809E-1
5.656180157E0,-8.115947247E-3,2.084910683E-2,1.373004913E-2,2.625010676E-2
5.660909844E0,-9.109865129E-2,2.789982967E-2,8.483791351E-2,1.275728668E-1
5.665639532E0,-9.755964577E-2,8.692288771E-3,4.139995575E-2,1.063362436E-1
5.670369272E0,-4.447048903E-2,1.341246068E-2,-6.578254700E-2,8.052864078E-2
5.675098959E0,-6.324735284E-2,2.510030195E-2,1.009597778E-1,1.217502753E-1
5.679828647E0,1.793172956E-2,6.993033737E-2,1.048688889E-1,1.273156819E-1
5.684558386E0,2.248996496E-2,6.212781370E-2,3.295402527E-1,3.360988573E-1
5.689288074E0,4.860547185E-2,5.667897314E-2,1.677207947E-1,1.835899313E-1
5.694017813E0,2.467495203E-2,2.286968008E-2,-4.498195648E-2,5.617162926E-2
5.698747501E0,-1.827742159E-2,2.258097008E-2,-6.359863281E-2,6.991959987E-2
5.703477188E0,5.065608025E-2,-2.756166831E-2,-1.604089737E-1,1.704603264E-1
5.708206928E0,5.491334200E-2,-2.030842379E-2,-1.163349152E-1,1.302371671E-1
5.712936615E0,6.868863106E-2,-1.187903807E-3,-9.162425995E-2,1.145187503E-1
5.717666303E0,4.424884915E-2,3.916909546E-2,5.396556854E-2,8.002787813E-2
5.722396042E0,1.033643186E-1,4.597940668E-2,-1.482896805E-1,1.865157300E-1
5.727125730E0,6.215921044E-2,-8.910978213E-3,-1.589269638E-1,1.708828628E-1
5.731855417E0,-4.291856289E-2,-2.069318667E-2,8.218955994E-2,9.500176197E-2
5.736585157E0,-3.527972102E-2,-3.946884349E-2,-1.416702271E-1,1.512378972E-1
5.741314844E0,-1.157757491E-1,-8.657859266E-2,-3.127574921E-2,1.479123026E-1
5.746044584E0,-1.244619340E-1,-7.634468377E-2,1.172256470E-2,1.464810645E-1
5.750774272E0,-8.776772022E-2,-6.382114440E-2,4.961109161E-2,1.193212957E-1
5.755503959E0,-8.936579525E-2,-1.571800560E-3,1.417884827E-1,1.676087400E-1
5.760233699E0,-6.254616380E-2,1.507769711E-2,1.263637543E-1,1.417997107E-1
5.764963386E0,-6.198009849E-2,-1.589527354E-2,7.782649994E-2,1.007529475E-1
5.769693074E0,-3.292913735E-2,-3.001806140E-2,3.681755066E-2,5.780090080E-2
5.774422813E0,-4.219207168E-2,-3.458353877E-2,2.938842773E-2,6.196669873E-2
5.779152501E0,-1.549094915E-3,-3.905476630E-2,-9.905815125E-2,1.064903366E-1
5.783882240E0,-8.727729321E-3,-3.407834470E-2,-2.700614929E-2,4.434905790E-2
5.788611928E0,2.225360274E-2,2.071523294E-2,1.832675934E-2,3.549949040E-2
5.793341615E0,4.588288069E-2,3.883963451E-3,6.300926208E-3,4.647607539E-2
5.798071355E0,5.987563729E-2,1.579666696E-2,-9.584331512E-2,1.141077021E-1
5.802801042E0,4.992499948E-2,1.576630771E-2,-5.705928802E-2,7.743929481E-2
5.807530730E0,6.136780977E-2,-8.035290986E-3,-1.278085709E-1,1.420056505E-1
5.812260469E0,6.559267640E-2,-8.592903614E-4,-9.587955475E-2,1.161724003E-1
5.816990157E0,5.788314342E-2,-8.647721261E-4,-7.846069336E-2,9.750531537E-2
5.821719844E0,3.121617436E-2,1.589355990E-3,-6.580352783E-3,3.194176947E-2
5.826449584E0,-2.371832728E-2,-5.473561585E-3,9.793853760E-2,1.009181652E-1
5.831179272E0,-2.079933882E-3,-1.960082538E-2,4.488849640E-2,4.902545859E-2
5.835909011E0,-2.338492870E-2,-5.120582879E-3,3.026771545E-2,3.859028192E-2
5.840638699E0,-1.848240197E-2,-7.350035012E-3,3.951454163E-2,4.423823230E-2
5.845368386E0,-3.258547187E-2,-4.868792370E-3,1.544380188E-2,3.638721111E-2
5.850098126E0,2.697077394E-2,2.130324207E-2,-4.166316986E-2,5.400991106E-2
5.854827813E0,1.480618119E-2,3.055347688E-2,1.296243668E-1,1.339970687E-1
5.859557501E0,3.849777579E-2,6.821409613E-2,8.818244934E-2,1.179465388E-1
5.864287240E0,1.450902224E-2,5.324493349E-2,2.061529160E-1,2.134117134E-1
5.869016928E0,2.873483300E-2,4.326426610E-2,5.960941315E-2,7.906180800E-2
5.873746615E0,-2.238273621E-3,1.920734532E-2,9.249687195E-3,2.143568745E-2
5.878476355E0,-2.594482899E-2,-2.302672714E-3,-5.730342865E-2,6.294536828E-2
5.883206042E0,2.643364668E-2,-1.648404635E-2,-1.375455856E-1,1.410292508E-1
5.887935730E0,4.754024744E-2,9.727045894E-3,-2.243900299E-2,5.346213056E-2
5.892665469E0,1.112339199E-1,2.144788392E-2,-8.160400391E-2,1.396145054E-1
5.897395157E0,1.221087873E-1,4.019195586E-2,3.778553009E-2,1.339914010E-1
5.902124844E0,8.792674541E-2,6.633225828E-3,2.559661865E-2,9.181666042E-2
5.906854584E0,8.738163114E-2,-1.703610085E-2,-7.671070099E-2,1.175172746E-1
5.911584272E0,-1.770719886E-2,-1.913853362E-2,-4.521083832E-2,5.219049973E-2
5.916314011E0,-4.368710518E-2,-1.888011396E-2,-7.569789886E-2,8.941584733E-2
5.921043699E0,-6.003955007E-2,-3.057769313E-2,-2.520656586E-2,7.193826417E-2
5.925773386E0,-9.751111269E-3,-1.363106258E-2,1.061630249E-2,1.983925192E-2
5.930503126E0,-1.440161467E-2,3.149248287E-2,1.102437973E-1,1.155546530E-1
5.935232813E0,-2.367632091E-2,5.255624652E-2,1.021986008E-1,1.173340582E-1
5.939962501E0,-3.767909110E-2,4.263828695E-2,1.132164001E-1,1.267110519E-1
5.944692240E0,6.375908852E-4,1.146413758E-2,-8.809089661E-3,1.447180132E-2
5.949421928E0,-1.597040892E-2,-1.235627010E-2,1.737880707E-2,2.664121444E-2
5.954151615E0,-1.810947061E-2,-5.505836010E-2,-3.737354279E-2,6.896490153E-2
5.958881355E0,-2.503609657E-2,-2.875292674E-2,4.365825653E-2,5.796188654E-2
5.963611042E0,1.560652256E-2,-4.984661937E-3,4.566764832E-2,4.851746597E-2
5.968340730E0,3.451457620E-2,6.829505786E-3,4.291248322E-2,5.549215562E-2
5.973070469E0,3.902018070E-2,1.388238370E-2,-2.392292023E-2,4.782887404E-2
5.977800157E0,3.153207898E-2,-2.751816064E-3,-3.084468842E-2,4.419546696E-2
5.982529897E0,2.888321877E-2,-9.893244132E-3,-4.720687866E-2,5.621926715E-2
5.987259584E0,5.474618077E-2,-2.991501242E-4,-1.037921906E-1,1.173458675E-1
5.991989272E0,4.003310204E-2,-1.690063998E-2,-8.630847931E-2,9.663040148E-2
5.996719011E0,2.541410923E-2,-2.154923044E-2,-1.436328888E-2,3.628429892E-2
6.001448699E0,-8.019238710E-3,-4.849487916E-3,5.460739136E-2,5.540571192E-2
6.006178386E0,1.560777426E-3,-2.144232020E-2,3.278446198E-2,3.920497505E-2
6.010908126E0,-3.645056486E-2,9.615335613E-3,8.769989014E-3,3.870414790E-2
6.015637813E0,-3.378471732E-2,-2.600421384E-2,-7.921218872E-3,4.336325599E-2
6.020367501E0,-5.010572076E-2,-4.230604693E-2,6.388664246E-3,6.588778256E-2
6.025097240E0,-5.913966894E-2,-2.532017790E-2,-4.589748383E-2,7.902652006E-2
6.029826928E0,-5.634169281E-2,-1.322260685E-2,-1.464939117E-2,5.969780852E-2
6.034556615E0,-6.306362152E-2,1.034377143E-3,5.907249451E-2,8.641556516E-2
6.039286355E0,-3.397500515E-2,1.514483616E-2,7.519721985E-2,8.389451061E-2
6.044016042E0,-3.121572733E-2,-8.736271411E-3,3.658294678E-2,4.887797117E-2
6.048745782E0,-3.563047945E-2,-1.577007584E-2,1.015853882E-2,4.026688800E-2
6.053475469E0,-5.900160968E-2,-3.227034211E-2,-8.489227295E-2,1.083017217E-1
6.058205157E0,-3.944334388E-2,-4.628743976E-2,-8.181285858E-2,1.019394344E-1
6.062934844E0,-1.541367173E-2,-2.460398711E-2,-6.213760376E-2,6.858585320E-2
6.067664584E0,3.695935011E-3,-2.988070250E-3,-6.636714935E-2,6.653711004E-2
6.072394272E0,3.923681378E-2,6.520777941E-3,1.728248596E-2,4.336741198E-2
6.077124011E0,2.230739594E-2,2.304281853E-2,6.224822998E-2,7.002452095E-2
6.081853699E0,2.222338319E-2,2.286663093E-2,1.186752319E-2,3.402351653E-2
6.086583386E0,-2.062298357E-2,1.409253106E-3,-7.132720947E-2,7.426213205E-2
6.091313126E0,-3.705364466E-2,-5.313586444E-2,-4.936599731E-2,8.144565282E-2
6.096042813E0,-4.622498155E-2,-3.368481249E-2,-4.895591736E-2,7.528676747E-2
6.100772501E0,-5.519777536E-3,-1.668380573E-2,-3.667736053E-2,4.066996550E-2
6.105502240E0,2.065813541E-2,3.467313945E-5,9.420681000E-2,9.644523218E-2
6.110231928E0,5.619993806E-2,4.035530612E-2,4.356193542E-2,8.175956206E-2
6.114961615E0,4.156008363E-2,4.715729505E-2,3.132629395E-2,7.023095984E-2
6.119691355E0,2.455419302E-2,3.250677884E-2,6.667804718E-2,7.813808957E-2
6.124421042E0,2.202039957E-2,-8.109558374E-3,-1.024427414E-1,1.050960427E-1
6.129150730E0,-1.144158840E-2,-3.883387521E-2,1.474571228E-2,4.308614440E-2
6.133880469E0,-3.272563219E-2,-1.246423461E-2,5.735778809E-2,6.720297613E-2
6.138610157E0,1.504638791E-2,-7.623950019E-3,-2.858924866E-2,3.319432997E-2
6.143339844E0,-2.076031268E-2,2.563729882E-2,1.449642181E-1,1.486703945E-1
6.148069584E0,2.696907520E-2,3.007385321E-2,5.591011047E-2,6.897614165E-2
6.152799272E0,7.796198130E-3,1.793831401E-2,6.494045258E-2,6.782201851E-2
6.157529011E0,-1.127398014E-2,1.769072004E-2,3.828525543E-2,4.365575549E-2
6.162258699E0,-2.066026628E-2,3.286529332E-3,-4.987812042E-2,5.408765825E-2
6.166988386E0,-8.629322052E-3,-4.186308011E-2,-1.040678024E-1,1.125037341E-1
6.171718074E0,-2.530243993E-2,-3.918120265E-2,1.313686371E-2,4.845572511E-2
6.176447813E0,5.703330040E-3,-1.521131210E-2,1.777648926E-2,2.408143600E-2
6.181177501E0,3.653606772E-2,2.532105334E-2,-4.409980774E-2,6.261655556E-2
6.185907188E0,2.440580726E-2,4.409058020E-2,4.885768890E-2,7.019042994E-2
6.190636928E0,4.089495540E-2,2.480201423E-2,-1.129932404E-1,1.226988576E-1
6.195366615E0,4.986852407E-3,2.226549946E-2,-1.471233368E-2,2.714910542E-2
6.200096355E0,-1.637709141E-2,7.854197174E-4,-5.020236969E-2,5.281196767E-2
6.204826042E0,-6.699025631E-3,-1.819924265E-2,-5.690765381E-2,6.012129772E-2
6.209555730E0,-2.330264449E-2,1.514860056E-2,5.040359497E-2,5.755880233E-2
6.214285469E0,-6.501495838E-3,2.450630814E-2,3.811359406E-2,4.577635458E-2
6.219015157E0,-1.112213731E-2,4.803014919E-2,5.916023254E-2,7.700993627E-2
6.223744844E0,7.951647043E-3,1.915596426E-2,9.902763367E-2,1.011763405E-1
6.228474584E0,-1.566171646E-3,2.363879234E-3,4.597091675E-2,4.605828921E-2
6.233204272E0,8.945465088E-4,-3.797277436E-2,-7.312202454E-2,8.239880022E-2
6.237933959E0,1.260334253E-2,-3.766898066E-2,-2.502536774E-2,4.694747466E-2
6.242663699E0,5.278989673E-2,-3.505130857E-2,-5.567836761E-2,8.435311523E-2
6.247393386E0,3.574746847E-2,3.404917568E-2,-2.197647095E-2,5.403881144E-2
6.252123074E0,3.303489089E-2,5.037182197E-2,9.928894043E-2,1.161331914E-1
6.256852813E0,5.889177322E-2,5.474390090E-2,8.242607117E-3,8.082744714E-2
6.261582501E0,4.422962666E-2,3.533807397E-2,1.054573059E-2,5.758690632E-2
6.266312188E0,1.072487235E-2,1.131794229E-2,-6.314373016E-2,6.504036719E-2
6.271041928E0,-1.546370983E-2,-1.244505495E-2,-1.101016998E-1,1.118766733E-1
6.275771615E0,-1.792028546E-2,-7.606470957E-3,-4.507637024E-2,4.910065362E-2
6.280501303E0,2.000406384E-2,1.615649275E-2,-1.145648956E-2,2.815041708E-2
6.285231042E0,3.881850839E-2,2.787994966E-2,1.025981903E-1,1.131837305E-1
6.289960730E0,1.488396525E-2,1.333234273E-2,9.461688995E-2,9.670387608E-2
6.294690417E0,-4.273682833E-3,6.199304014E-3,2.735233307E-2,2.836980542E-2
6.299420157E0,-2.578839660E-2,-2.933403291E-2,2.475547791E-2,4.624241097E-2
6.304149844E0,-2.793112397E-2,-3.382281959E-2,-8.703708649E-2,9.746581573E-2
6.308879532E0,-3.966668248E-2,-3.352435678E-2,-4.119968414E-2,6.629285158E-2
6.313609272E0,-3.468543291E-2,-2.616290562E-2,-4.560184479E-2,6.298495959E-2
6.318338959E0,1.203864813E-3,2.474509180E-3,2.363014221E-2,2.378983201E-2
6.323068647E0,-3.452569246E-3,1.894635148E-2,1.231441498E-1,1.246409487E-1
6.327798386E0,1.567128301E-2,2.827240527E-2,-3.220367432E-2,4.562887956E-2
6.332528074E0,-2.723458409E-2,-4.363674670E-4,-3.444671631E-3,2.745503141E-2
6.337257761E0,-3.306597471E-3,-1.709367149E-2,-3.902816772E-2,4.273552466E-2
6.341987501E0,-2.457302809E-2,-4.539591074E-2,-4.820060730E-2,7.062521480E-2
6.346717188E0,-2.669757605E-2,-6.407963485E-2,4.430770874E-3,6.955998777E-2
6.351446876E0,-3.606928885E-2,-3.509622440E-2,-9.846687317E-3,5.128055983E-2
6.356176615E0,-7.262736559E-3,-1.547543332E-3,4.478454590E-3,8.671723485E-3
6.360906303E0,-1.193431020E-2,3.260266036E-3,7.566452026E-2,7.666926843E-2
6.365635990E0,-7.013171911E-3,-1.470878720E-3,3.229713440E-2,3.308251736E-2
6.370365730E0,-2.350026369E-2,9.590797126E-4,-6.531333923E-2,6.941912207E-2
6.375095417E0,-1.853980124E-2,-2.752208710E-2,-5.415916443E-3,3.362323094E-2
6.379825105E0,-5.400966108E-2,-3.920383751E-2,-5.371093750E-3,6.695396190E-2
6.384554844E0,-2.511033416E-2,-1.277415641E-2,-3.144073486E-2,4.221643948E-2
6.389284532E0,-1.078209281E-2,2.055695839E-2,3.055286407E-2,3.837081660E-2
6.394014219E0,5.943208933E-3,1.325056329E-2,6.116294861E-2,6.286338714E-2
6.398743959E0,-1.126855612E-3,3.449482471E-2,5.590057373E-2,6.569655150E-2
6.403473647E0,3.732711077E-3,1.757568680E-2,1.982021332E-2,2.675217289E-2
6.408203334E0,-8.095771074E-3,-3.949986771E-3,-1.014280319E-1,1.018272535E-1
6.412933074E0,-5.637735128E-3,-2.529704757E-2,-6.734561920E-2,7.216063400E-2
6.417662761E0,-2.222174406E-2,-1.325738803E-2,2.343368530E-2,3.490991053E-2
6.422392449E0,1.839727163E-2,-1.318727247E-2,-3.374290466E-2,4.063185172E-2
6.427122188E0,-3.192454576E-3,2.014881186E-2,9.474372864E-2,9.691512009E-2
6.431851876E0,3.726807237E-2,1.996826008E-2,3.697299957E-2,5.616621160E-2
6.436581563E0,-9.270608425E-4,1.266753301E-2,4.615783691E-2,4.787349729E-2
6.441311303E0,1.414209604E-3,3.110466525E-3,-2.782440186E-2,2.803341452E-2
6.446040990E0,-1.282602549E-2,-2.295827121E-2,-8.457279205E-2,8.856718524E-2
6.450770678E0,-1.510533690E-2,-6.311163306E-2,-3.876018524E-2,7.558836809E-2
6.455500417E0,2.534061670E-2,-3.410933167E-2,-3.131294250E-2,5.278346076E-2
6.460230105E0,4.888746142E-2,4.061663523E-3,2.830123901E-2,5.663427518E-2
6.464959792E0,6.511551142E-2,3.487909213E-2,1.619529724E-2,7.562320112E-2
6.469689532E0,6.458917260E-2,2.036091685E-2,4.454898834E-2,8.106133798E-2
6.474419219E0,4.038289189E-2,1.548726484E-2,1.331233978E-2,4.525319569E-2
6.479148907E0,1.157316566E-2,-3.535233438E-3,-8.176612854E-2,8.265673484E-2
6.483878647E0,-1.230534911E-2,-8.208986372E-3,-2.410507202E-2,2.828185940E-2
6.488608334E0,-1.933731139E-2,-1.052737236E-2,-4.527187347E-2,5.034182862E-2
6.493338022E0,2.207517624E-3,6.167512387E-3,7.336616516E-3,9.835511426E-3
6.498067761E0,4.522919655E-3,2.509511635E-2,6.425666809E-2,6.913133198E-2
6.502797449E0,2.824324369E-2,4.626838863E-2,2.335929871E-2,5.902627751E-2
6.507527136E0,-5.213767290E-3,3.877620399E-2,7.776927948E-2,8.705652300E-2
6.512256876E0,-1.221928000E-2,-9.043309838E-3,8.268356323E-3,1.730485403E-2
6.516986563E0,-4.061931372E-2,-8.895145729E-3,-7.964324951E-2,8.984486328E-2
6.521716251E0,-6.409147382E-2,-1.598305441E-2,-3.624248505E-2,7.534383032E-2
6.526445990E0,-1.374086738E-2,-1.616854221E-3,-5.255985260E-2,5.435037957E-2
6.531175678E0,-4.084825516E-3,1.732019521E-2,4.046916962E-2,4.420892049E-2
6.535905365E0,7.921785116E-3,3.607096523E-2,6.149673462E-2,7.173365724E-2
6.540635105E0,1.745414734E-2,3.338433802E-2,2.536773682E-2,4.541677395E-2
6.545364792E0,2.447599173E-2,3.074859269E-2,2.990436554E-2,4.938442266E-2
6.550094480E0,2.431684732E-2,-5.103262141E-3,-4.869270325E-2,5.466563544E-2
6.554824219E0,-9.136110544E-3,-2.169088461E-2,-5.540943146E-2,6.020106382E-2
6.559553907E0,-3.058177233E-2,-2.149429172E-2,-2.170658112E-2,4.322528241E-2
6.564283594E0,5.244851112E-3,-1.898291707E-2,9.339332581E-3,2.179639275E-2
6.569013334E0,2.887362242E-2,-2.126848325E-2,9.948062897E-2,1.057470094E-1
6.573743022E0,2.633234859E-2,-9.262405336E-3,2.267742157E-2,3.596456845E-2
6.578472709E0,7.193267345E-3,2.687070519E-4,5.335044861E-2,5.383387099E-2
6.583202397E0,-2.611678839E-2,-1.396258548E-2,-1.594543457E-2,3.363476345E-2
6.587932136E0,2.635627985E-3,-9.054381400E-3,-9.416007996E-2,9.463112075E-2
6.592661824E0,-1.404580474E-2,-2.801400609E-2,-3.876876831E-2,4.985064257E-2
6.597391511E0,2.820551395E-3,-6.595993415E-3,-5.744075775E-2,5.788698723E-2
6.602121251E0,2.841979265E-3,4.548504949E-4,2.613162994E-2,2.628965231E-2
6.606850938E0,2.834737301E-3,2.415141277E-2,4.965496063E-2,5.528961557E-2
6.611580626E0,-4.237800837E-3,2.868503518E-2,6.823253632E-2,7.413817648E-2
6.616310365E0,-1.828871667E-2,7.124515250E-3,3.204727173E-2,3.758009447E-2
6.621040053E0,-1.331451535E-2,-2.135258913E-2,-7.030963898E-2,7.467700258E-2
6.625769740E0,-2.274057269E-2,-4.962087050E-2,-3.885936737E-2,6.700309596E-2
6.630499480E0,-2.490878105E-2,-3.019834310E-2,-6.702518463E-2,7.761934472E-2
6.635229167E0,-1.284262538E-2,-1.577064022E-2,2.137851715E-2,2.950740780E-2
6.639958855E0,1.571381092E-2,9.086839855E-4,6.393623352E-2,6.584520876E-2
6.644688594E0,2.034768462E-2,8.010147139E-3,4.915809631E-2,5.380250143E-2
6.649418282E0,1.544636488E-2,1.270676591E-2,2.975463867E-2,3.585234456E-2
6.654147969E0,-2.024956048E-2,7.167235017E-4,-8.480072021E-3,2.196520006E-2
6.658877709E0,-2.724386752E-2,-1.111490093E-2,-4.402065277E-2,5.294891132E-2
6.663607397E0,-1.518669724E-2,-2.050226741E-2,-7.214260101E-2,7.652145858E-2
6.668337084E0,3.003662825E-2,-8.501801640E-3,-3.592777252E-2,4.759500505E-2
6.673066824E0,3.217688203E-2,1.524092257E-2,1.897621155E-2,4.034518636E-2
6.677796511E0,6.044346094E-2,4.593671858E-2,6.867408752E-2,1.023705250E-1
6.682526199E0,7.668924332E-2,2.894994244E-2,3.485965729E-2,8.907600639E-2
6.687255886E0,3.816562891E-2,7.385678589E-3,1.320075989E-2,4.105391017E-2
6.691985626E0,1.415106654E-2,-6.876436993E-3,-6.525802612E-2,6.712784849E-2
6.696715313E0,9.158968925E-3,-4.716458172E-2,-5.521297455E-2,7.319055293E-2
6.701445001E0,-7.576853037E-3,-4.915910959E-2,-6.424903870E-2,8.125248139E-2
6.706174740E0,1.970946789E-3,-3.689289838E-2,-2.335262299E-2,4.370715711E-2
6.710904428E0,-2.423000336E-2,2.040915564E-2,6.706142426E-2,7.416779166E-2
6.715634115E0,-1.211234927E-2,2.022566460E-2,5.937862396E-2,6.388745962E-2
6.720363855E0,-2.526879311E-3,1.079767942E-3,3.751754761E-2,3.761804615E-2
6.725093542E0,-7.266253233E-3,-3.924465925E-2,-2.452373505E-2,4.684394620E-2
6.729823230E0,-4.754978418E-2,-2.697408572E-2,-7.655143738E-2,9.406755998E-2
6.734552969E0,-6.624414027E-2,-1.955483109E-2,-6.404018402E-2,9.419035358E-2
6.739282657E0,-2.540069818E-2,-7.533015683E-3,-4.213714600E-2,4.977429925E-2
6.744012344E0,-6.208062172E-3,-1.222964749E-2,3.322601318E-3,1.411183876E-2
6.748742084E0,-3.765821457E-3,2.347260900E-2,6.977081299E-2,7.370964068E-2
6.753471772E0,3.461420536E-3,2.329207398E-2,7.156181335E-2,7.533654673E-2
6.758201459E0,1.160383224E-3,2.545871213E-2,-1.213264465E-2,2.822576091E-2
6.762931199E0,-2.017192543E-2,6.299983710E-3,-6.189060211E-2,6.539910550E-2
6.767660886E0,-2.956950665E-2,-1.032647118E-2,-5.187606812E-2,6.059800470E-2
6.772390574E0,-1.037052274E-2,-1.262644492E-2,-3.244876862E-2,3.633039276E-2
6.777120261E0,-8.564889431E-4,-5.440661684E-3,-2.268028259E-2,2.333944282E-2
6.781850001E0,1.100942492E-2,1.355597749E-2,6.060314178E-2,6.306911096E-2
6.786579688E0,8.588403463E-3,3.717185184E-2,7.909107208E-2,8.781175848E-2
6.791309376E0,-1.517969370E-2,2.740980312E-2,7.130908966E-2,7.788906647E-2
6.796039115E0,-1.254880428E-2,1.770139672E-2,-1.475906372E-2,2.624198728E-2
6.800768803E0,-3.376679122E-2,-2.753756009E-2,-6.449413300E-2,7.783319726E-2
6.805498490E0,-4.785634577E-2,-3.678807244E-2,-2.834033966E-2,6.668408323E-2
6.810228230E0,-1.669095457E-2,-2.934474684E-2,-4.709434509E-2,5.794462418E-2
6.814957917E0,1.421484351E-2,-2.999505028E-3,4.826736450E-2,5.040632185E-2
6.819687605E0,2.213507891E-3,4.107574001E-3,1.024703979E-1,1.025765774E-1
6.824417344E0,3.078678250E-2,4.059938714E-3,6.647109985E-3,3.175678117E-2
6.829147032E0,2.820089459E-2,-3.079736605E-3,2.320957184E-2,3.665323258E-2
6.833876719E0,-2.824634314E-3,6.429875270E-3,-5.770683289E-2,5.813261061E-2
6.838606459E0,6.654888391E-3,-1.494595781E-2,-9.046363831E-2,9.193116474E-2
6.843336147E0,8.876085281E-3,-4.804364592E-2,-3.035354614E-2,5.751794995E-2
6.848065834E0,3.250315785E-2,-7.324650884E-3,-3.009986877E-2,4.490108998E-2
6.852795574E0,2.987465262E-2,2.355842851E-2,7.698726654E-2,8.587510485E-2
6.857525261E0,9.614676237E-2,4.952127859E-2,-4.375457764E-3,1.082390945E-1
6.862254949E0,2.894297242E-2,4.200046882E-2,4.789066315E-2,6.996606785E-2
6.866984636E0,9.781986475E-3,3.460080922E-2,-2.610874176E-2,4.443613005E-2
6.871714376E0,5.025535822E-3,2.254300378E-2,-8.999538422E-2,9.291185183E-2
6.876444063E0,7.345825434E-3,1.044251211E-2,-2.514266968E-2,2.819860012E-2
6.881173803E0,2.148923278E-2,1.751993969E-2,-4.155158997E-2,4.995267801E-2
6.885903490E0,9.341984987E-3,3.154923767E-2,8.225250244E-2,8.858950976E-2
6.890633178E0,3.067636490E-2,4.077027738E-2,7.919216156E-2,9.420537848E-2
6.895362865E0,5.423560739E-2,3.097824007E-2,6.191158295E-2,8.794428105E-2
6.900092605E0,1.587066054E-2,3.551270068E-2,8.513545990E-2,9.360062130E-2
6.904822292E0,3.940910101E-3,2.098924853E-2,-1.529121399E-2,2.626595804E-2
6.909551980E0,1.578837633E-3,-2.433560602E-2,-1.991271973E-2,3.148381895E-2
6.914281719E0,-7.971405983E-3,-1.707998104E-2,-1.974582672E-2,2.729774237E-2
6.919011407E0,-5.884736776E-3,-2.161237411E-2,-5.993175507E-2,6.398077920E-2
6.923741094E0,-1.308429241E-2,2.592565678E-2,1.043863297E-1,1.083505616E-1
6.928470782E0,4.402056336E-2,2.798720449E-2,3.941535950E-2,6.538091601E-2
6.933200522E0,2.713659406E-2,1.106532477E-2,2.483844757E-2,3.841594235E-2
6.937930209E0,1.508471370E-2,2.048476599E-2,-3.709602356E-2,4.498098697E-2
6.942659897E0,2.681761980E-2,-2.946947515E-2,-8.426952362E-2,9.321473762E-2
6.947389636E0,-4.253298044E-3,-1.015869528E-2,-7.644653320E-2,7.723575644E-2
6.952119324E0,-1.853173971E-2,-6.185751408E-4,-3.544616699E-2,4.000298447E-2
6.956849011E0,-2.794301510E-2,1.691892743E-3,-6.659507751E-3,2.877539986E-2
6.961578751E0,-1.110315323E-2,1.345044747E-2,6.462192535E-2,6.693420490E-2
6.966308438E0,-1.090866327E-2,1.567060128E-2,8.544826508E-2,8.755554056E-2
6.971038126E0,-4.395397007E-2,1.318169944E-2,4.437255859E-2,6.383284924E-2
6.975767865E0,-6.962972879E-2,-2.964851819E-2,-5.808734894E-2,9.540164500E-2
6.980497553E0,-6.909009814E-2,-3.413314000E-2,-1.961612701E-2,7.951921369E-2
6.985227240E0,-6.852659583E-2,-4.341336712E-2,-2.657413483E-2,8.536275196E-2
6.989956928E0,-4.900272191E-2,-2.636128850E-2,-1.023244858E-1,1.164752535E-1
6.994686667E0,-4.874889553E-2,2.307806164E-3,1.193294525E-1,1.289236170E-1
6.999416355E0,3.250867128E-2,9.370654821E-3,2.336502075E-2,4.111626290E-2
7.004146042E0,2.289992571E-2,-1.202967763E-2,1.366996765E-2,2.925726845E-2
7.008875782E0,-1.763506234E-2,-1.428697631E-2,-6.904602051E-4,2.270660369E-2
7.013605469E0,-3.169775009E-3,-2.596585639E-2,-1.288900375E-1,1.315177362E-1
7.018335157E0,-1.980300248E-2,-4.235190898E-2,-6.371402740E-2,7.902733951E-2
7.023064897E0,-7.864594460E-3,-3.486146033E-2,-4.181289673E-2,5.500446886E-2
7.027794584E0,-3.005832434E-3,1.530199312E-2,-3.479003906E-3,1.597778114E-2
7.032524272E0,6.560862064E-3,3.884483874E-2,9.863758087E-2,1.062136468E-1
7.037253959E0,2.082446218E-2,2.898341604E-2,9.543991089E-2,1.018944219E-1
7.041983699E0,2.315551043E-2,-6.769813597E-3,-3.831195831E-2,4.527487370E-2
7.046713386E0,-1.981250942E-2,-1.136117987E-2,2.848434448E-2,3.650985919E-2
7.051443074E0,1.363557577E-2,-3.021536954E-2,-4.772567749E-2,5.810884420E-2
7.056172813E0,1.820123196E-2,-3.229340538E-2,-5.682182312E-2,6.784444309E-2
7.060902501E0,-1.098215580E-3,-1.304222643E-2,6.711101532E-2,6.837539122E-2
7.065632188E0,6.059813499E-2,3.702856600E-3,3.331375122E-2,6.925063994E-2
7.070361928E0,3.645342588E-2,3.689819574E-2,7.576751709E-2,9.182072617E-2
7.075091615E0,4.102823138E-2,2.467960678E-2,7.275867462E-2,8.709892935E-2
7.079821303E0,5.147606134E-3,3.169690818E-2,-4.655742645E-2,5.655780932E-2
7.084550990E0,-6.721019745E-3,-4.135899246E-3,-2.005386353E-2,2.155075895E-2
7.089280730E0,7.596284151E-3,-3.020122461E-2,-7.686805725E-2,8.293681768E-2
7.094010417E0,4.078760743E-2,-1.574655436E-2,-5.723381042E-2,7.202285714E-2
7.098740105E0,1.666554809E-2,1.283485256E-2,-4.525184631E-3,2.151630148E-2
7.103469844E0,5.209845304E-2,5.310347676E-2,1.688098907E-2,7.628365386E-2
7.108199532E0,4.698947072E-2,3.837416321E-2,2.623462677E-2,6.609721932E-2
7.112929219E0,2.764984965E-2,1.432719082E-2,1.414489746E-2,3.420322655E-2
7.117658959E0,1.348793507E-3,-1.186428964E-2,2.154350281E-3,1.213350064E-2
7.122388647E0,-3.394305706E-3,-2.834014408E-2,-1.923179626E-2,3.441724953E-2
7.127118334E0,-1.052895188E-2,-2.803118527E-2,-4.281234741E-2,5.224464821E-2
7.131848022E0,-2.000693977E-2,5.457082763E-3,-1.871204376E-2,2.793202415E-2
7.136577761E0,1.101166010E-2,5.427436903E-3,4.317188263E-2,4.488346220E-2
7.141307449E0,1.099318266E-2,5.282481015E-2,7.842254639E-2,9.519141985E-2
7.146037136E0,3.234237432E-2,1.910463162E-2,5.402565002E-2,6.580111691E-2
7.150766876E0,1.787289977E-2,4.687888548E-3,1.083850861E-2,2.142172061E-2
7.155496563E0,-1.252889633E-3,-7.205311209E-3,-5.097961426E-2,5.150152728E-2
7.160226251E0,-3.685802221E-3,-3.392808139E-5,-7.904338837E-2,7.912928367E-2
7.164955990E0,-2.511990070E-2,-4.851551726E-3,-5.701446533E-2,6.249156921E-2
7.169685678E0,1.060417295E-2,1.651507802E-2,-1.380252838E-2,2.399387580E-2
7.174415365E0,-3.740966320E-3,3.060815111E-2,4.566764832E-2,5.510342862E-2
7.179145053E0,1.292568445E-2,3.039739467E-2,5.952930450E-2,6.807946105E-2
7.183874792E0,-6.101787090E-3,1.698618755E-3,3.766536713E-2,3.819420103E-2
7.188604480E0,5.864679813E-3,-1.008499786E-2,-2.912712097E-2,3.137659681E-2
7.193334167E0,-3.455665708E-2,-1.702289470E-2,-3.600597382E-2,5.272922949E-2
7.198063907E0,-2.950386703E-2,-2.639104798E-2,-3.570556641E-2,5.330903353E-2
7.202793594E0,-2.686724067E-2,2.129764669E-2,-2.828693390E-2,4.444759841E-2
7.207523282E0,-5.992202461E-2,3.769884259E-2,6.928920746E-2,9.905981040E-2
7.212252969E0,-4.857867956E-3,1.594851166E-2,8.295726776E-2,8.461596882E-2
7.216982709E0,4.667222500E-3,-1.735042781E-2,-8.287429810E-4,1.798630384E-2
7.221712397E0,-2.152772248E-2,-2.437018231E-2,1.178865433E-1,1.222889435E-1
7.226442084E0,-3.549139202E-2,-2.420746535E-2,-8.252716064E-2,9.303962881E-2
7.231171824E0,2.886587381E-2,-9.716531262E-3,-1.150770187E-1,1.190393628E-1
7.235901511E0,-7.104399800E-2,-3.593471646E-2,1.161727905E-1,1.408356161E-1
7.240631199E0,4.858526587E-2,4.768809304E-3,-1.981925964E-1,2.041165718E-1
7.245360938E0,-5.160275102E-2,-4.923328757E-3,2.735424042E-1,2.784107217E-1
7.250090626E0,8.185315132E-2,-2.148702927E-2,-6.824207306E-2,1.087134368E-1
7.254820313E0,1.711395383E-2,-2.185015008E-3,2.016830444E-2,2.654095346E-2
7.259550001E0,1.452818513E-2,-1.405019313E-2,2.474975586E-2,3.195350537E-2
7.264279740E0,6.182104349E-2,-2.807670459E-2,-1.843795776E-1,1.964840233E-1
7.269009428E0,1.135134697E-2,-2.307937294E-2,2.343177795E-3,2.582636280E-2
7.273739115E0,3.504329920E-2,5.588542670E-3,-9.501743317E-2,1.014276946E-1
7.278468855E0,-1.511764526E-2,2.918305434E-2,7.671356201E-2,8.345756081E-2
7.283198542E0,2.775970101E-2,1.937135123E-2,1.020431519E-4,3.385056368E-2
7.287928230E0,5.131483078E-2,1.450516842E-2,3.096389771E-2,6.166339863E-2
7.292657969E0,1.769408584E-2,4.960494116E-3,6.631660461E-2,6.881554492E-2
7.297387657E0,9.725987911E-4,-4.476929083E-3,-9.805393219E-2,9.816090087E-2
7.302117344E0,-4.661595821E-2,5.044320598E-3,6.895542145E-2,8.338670684E-2
7.306847032E0,2.246838808E-2,7.449228317E-3,-1.096773148E-1,1.122026418E-1
7.311576772E0,-3.931969404E-3,2.159091085E-2,5.268192291E-2,5.707024458E-2
7.316306459E0,4.116901755E-2,4.748624936E-2,4.274749756E-2,7.600776560E-2
7.321036147E0,9.978532791E-3,2.570977807E-2,3.764343262E-2,4.666467427E-2
7.325765834E0,-1.860645413E-2,2.556832507E-2,2.545833588E-2,4.059638220E-2
7.330495574E0,-1.128435135E-2,1.689668745E-3,-1.036739349E-2,1.541669270E-2
7.335225261E0,-2.536189556E-2,-3.160284087E-2,3.960609436E-3,4.071426930E-2
7.339954949E0,-6.084114313E-3,-7.637593895E-3,-6.255054474E-2,6.330813482E-2
7.344684688E0,1.297610998E-2,5.886184052E-2,-5.015754700E-2,7.841476404E-2
7.349414376E0,5.676478148E-3,5.361037329E-2,-7.002830505E-3,5.436298523E-2
7.354144063E0,3.888353705E-2,6.264910847E-2,2.866649628E-2,7.911136615E-2
7.358873751E0,-1.356998086E-2,1.935201325E-2,1.043977737E-1,1.070398989E-1
7.363603490E0,3.235638142E-3,-2.133043483E-3,8.560180664E-3,9.396590961E-3
7.368333178E0,-4.666048288E-2,-2.584091388E-2,6.114959717E-3,5.368748667E-2
7.373062865E0,-3.675861657E-2,-1.365355030E-2,-6.041240692E-2,7.202273417E-2
7.377792605E0,-7.219049335E-2,-1.824375242E-2,-3.853988647E-2,8.384285707E-2
7.382522292E0,-3.129738569E-2,-3.003207035E-2,4.962730408E-2,6.591146267E-2
7.387251980E0,1.646289229E-2,1.068703830E-3,6.108570099E-2,6.327425871E-2
7.391981719E0,-2.390426397E-2,8.054118603E-3,7.719230652E-2,8.120920421E-2
7.396711407E0,-9.443730116E-3,-3.867899999E-3,6.705093384E-2,6.782309649E-2
7.401441094E0,-5.205488205E-2,-3.468298540E-2,4.512405396E-2,7.712846729E-2
7.406170782E0,-1.830951869E-2,-5.566075444E-2,-1.404380798E-1,1.521716542E-1
7.410900522E0,-1.833982766E-2,-7.180088013E-2,-3.479957581E-2,8.187017859E-2
7.415630209E0,2.997308969E-3,-4.981860146E-2,-4.162788391E-2,6.499044262E-2
7.420359897E0,5.363017321E-3,4.687309265E-4,-1.279163361E-2,1.387831235E-2
7.425089636E0,1.485985518E-2,4.236940295E-4,9.889888763E-2,1.000099234E-1
7.429819324E0,2.908289433E-2,-3.040020354E-2,-4.200267792E-2,5.944923944E-2
7.434549011E0,-2.006977797E-3,-1.582917571E-2,3.669452667E-2,4.001348587E-2
7.439278699E0,1.704776287E-2,-2.277462184E-2,-7.757186890E-2,8.262387345E-2
7.444008438E0,-1.162448525E-2,-2.966372482E-2,-5.793094635E-2,6.611399075E-2
7.448738126E0,-3.774064779E-2,-4.842312634E-2,1.377964020E-2,6.292085620E-2
7.453467813E0,1.959848404E-2,-5.515622348E-2,-4.806423187E-2,7.573955341E-2
7.458197553E0,-9.123444557E-3,-1.194762252E-2,9.241294861E-2,9.362764546E-2
7.462927240E0,3.364670277E-2,2.380848117E-2,1.329803467E-2,4.331030026E-2
7.467656928E0,-2.172470093E-3,1.884912886E-2,7.253837585E-2,7.497883206E-2
7.472386615E0,1.682665944E-2,-1.678961888E-2,-7.763767242E-2,8.119504880E-2
7.477116355E0,2.486467361E-3,1.364760101E-5,-2.950859070E-2,2.961316652E-2
7.481846042E0,1.440998912E-2,-2.139569446E-2,-4.825782776E-2,5.471966254E-2
7.486575730E0,9.472608566E-3,-4.611007869E-3,-2.173805237E-2,2.415646140E-2
7.491305469E0,3.080582619E-2,1.912853308E-2,-9.686470032E-3,3.753301755E-2
7.496035157E0,5.187591910E-2,2.613588981E-2,1.651096344E-2,6.038880387E-2
7.500764844E0,5.151709914E-2,3.062448651E-2,5.198287964E-2,7.933530395E-2
7.505494532E0,5.822670460E-2,2.806792781E-2,-5.291366577E-2,8.353450619E-2
7.510224272E0,-1.595884562E-3,-3.041768447E-3,-1.211166382E-2,1.258934483E-2
7.514953959E0,7.959008217E-3,1.689972356E-3,-9.510707855E-2,9.545448239E-2
7.519683647E0,-3.010569513E-2,1.113057695E-2,-4.683113098E-2,5.677497205E-2
7.524413386E0,9.969472885E-4,1.814839058E-2,-2.032566071E-2,2.726702161E-2
7.529143074E0,1.524996758E-2,3.466049582E-2,2.732563019E-2,4.669691153E-2
7.533872761E0,-2.991254628E-2,5.807201564E-2,9.357166290E-2,1.141173761E-1
7.538602449E0,-1.537355781E-2,4.810808599E-2,3.818702698E-2,6.331653217E-2
7.543332188E0,-8.106559515E-3,2.585729584E-3,-9.613990784E-3,1.283865738E-2
